Time_ms,ax,ay,az,gx,gy,gz
1772932073899.2751,-0.2151,-0.5364,-0.7992,4.463,-5.014,-1.584
1772932073899.2751,-0.2153,-0.5441,-0.793,4.506,-4.786,-1.881
1772932073899.2751,-0.2162,-0.5511,-0.7899,3.885,-5.39,-1.951
1772932073899.2751,-0.2168,-0.5502,-0.7893,2.695,-5.049,-2.03
1772932073914.0378,-0.2167,-0.5488,-0.782,2.424,-5.39,-1.925
1772932073914.0378,-0.2253,-0.5503,-0.7809,2.284,-5.548,-2.24
1772932073914.0378,-0.2305,-0.5507,-0.7729,2.485,-5.976,-2.284
1772932073914.0378,-0.2336,-0.5518,-0.772,2.266,-5.81,-2.013
1772932073929.581,-0.2305,-0.5503,-0.773,2.345,-5.81,-1.802
1772932073929.581,-0.231,-0.5483,-0.7751,3.027,-6.221,-1.645
1772932073929.581,-0.232,-0.5463,-0.7747,3.465,-6.204,-1.768
1772932073945.2498,-0.2344,-0.5441,-0.7832,4.095,-6.545,-1.601
1772932073945.2498,-0.2321,-0.5452,-0.7875,4.287,-6.641,-1.829
1772932073945.2498,-0.2304,-0.5432,-0.7929,4.839,-6.694,-1.75
1772932073945.2498,-0.2289,-0.5455,-0.8017,4.638,-6.878,-1.899
1772932073960.952,-0.2257,-0.548,-0.7988,4.349,-7.779,-2.397
1772932073960.952,-0.2215,-0.5469,-0.8009,3.754,-8.05,-2.161
1772932073960.952,-0.2205,-0.5493,-0.7976,3.395,-8.662,-2.354
1772932073960.952,-0.2183,-0.5533,-0.7971,2.844,-8.426,-2.24
1772932073976.1362,-0.2176,-0.5542,-0.7957,2.748,-8.575,-2.152
1772932073976.1362,-0.2177,-0.5551,-0.7903,2.459,-8.321,-2.205
1772932073976.1362,-0.2159,-0.5539,-0.7915,2.328,-7.954,-2.433
1772932073976.1362,-0.2156,-0.5485,-0.7854,2.459,-7.893,-1.881
1772932073976.1362,-0.2146,-0.5449,-0.7781,2.984,-7.709,-2.004
1772932073992.2527,-0.2176,-0.5474,-0.7741,3.491,-7.21,-1.89
1772932073992.2527,-0.2178,-0.5478,-0.7665,3.911,-6.982,-2.091
1772932073992.2527,-0.2182,-0.5495,-0.7637,4.226,-6.204,-1.479
1772932073992.2527,-0.2199,-0.5485,-0.7612,6.65,-5.469,-1.216
1772932074007.7957,-0.221,-0.549,-0.7625,4.664,-4.76,-0.718
1772932074007.7957,-0.2192,-0.5449,-0.7621,4.436,-4.357,-0.787
1772932074007.7957,-0.2246,-0.5424,-0.7648,4.489,-4.541,-0.971
1772932074023.017,-0.2249,-0.5406,-0.7664,4.532,-4.445,-1.137
1772932074023.017,-0.226,-0.5413,-0.7698,4.445,-4.699,-1.391
1772932074023.017,-0.2294,-0.5381,-0.773,4.725,-4.952,-1.531
1772932074023.017,-0.2312,-0.5397,-0.774,4.795,-5.399,-1.671
1772932074037.998,-0.2296,-0.5416,-0.7769,4.769,-5.399,-2.004
1772932074037.998,-0.2295,-0.5427,-0.7809,4.83,-5.862,-1.986
1772932074037.998,-0.228,-0.5445,-0.781,4.795,-5.714,-2.223
1772932074037.998,-0.2267,-0.5414,-0.7795,4.751,-5.968,-1.75
1772932074053.688,-0.2288,-0.5469,-0.7808,4.935,-6.099,-1.776
1772932074053.688,-0.2268,-0.5451,-0.7832,5.162,-6.431,-1.531
1772932074053.688,-0.2207,-0.5411,-0.7812,5.574,-6.361,-1.374
1772932074053.688,-0.212,-0.5415,-0.7823,5.897,-6.536,-1.522
1772932074068.8599,-0.2213,-0.5464,-0.7788,5.758,-6.344,-1.715
1772932074068.8599,-0.2197,-0.5474,-0.774,5.338,-6.099,-1.496
1772932074068.8599,-0.2164,-0.5436,-0.7765,5.338,-5.827,-1.864
1772932074085.0005,-0.2173,-0.5403,-0.7792,5.049,-5.679,-1.846
1772932074085.0005,-0.2209,-0.5414,-0.7807,4.812,-5.32,-1.916
1772932074085.0005,-0.2227,-0.5423,-0.7794,4.777,-5.338,-1.986
1772932074085.0005,-0.2264,-0.5461,-0.7791,4.497,-5.425,-1.986
1772932074085.0005,-0.2292,-0.5515,-0.7796,4.48,-5.084,-1.846
1772932074100.9504,-0.231,-0.5528,-0.7823,4.121,-5.154,-1.575
1772932074100.9504,-0.2332,-0.5507,-0.7799,4.077,-5.162,-1.584
1772932074100.9504,-0.2346,-0.5507,-0.7851,4.016,-5.022,-1.776
1772932074100.9504,-0.2329,-0.5485,-0.7841,3.938,-5.364,-1.409
1772932074116.054,-0.2331,-0.5464,-0.7831,4.34,-5.731,-1.934
1772932074116.054,-0.2314,-0.5478,-0.7814,4.226,-5.88,-2.17
1772932074116.054,-0.2311,-0.55,-0.7817,4.375,-5.635,-2.004
1772932074116.054,-0.2308,-0.5471,-0.7806,4.366,-5.81,-2.231
1772932074131.17,-0.2292,-0.5432,-0.7823,4.62,-5.871,-2.231
1772932074131.17,-0.2313,-0.5463,-0.7776,5.268,-5.933,-2.459
1772932074131.17,-0.2332,-0.5502,-0.7818,5.25,-5.46,-2.467
1772932074131.17,-0.2338,-0.5459,-0.7831,5.53,-5.031,-2.249
1772932074147.0671,-0.2308,-0.5442,-0.785,5.495,-2.319,-1.741
1772932074147.0671,-0.2275,-0.5419,-0.7837,5.688,-4.681,-2.091
1772932074147.0671,-0.2281,-0.5436,-0.7907,5.74,-4.769,-1.925
1772932074162.8892,-0.2273,-0.5432,-0.7926,5.644,-4.559,-1.671
1772932074162.8892,-0.2294,-0.5444,-0.7929,6.107,-4.428,-1.855
1772932074162.8892,-0.226,-0.5474,-0.7826,6.834,-4.681,-2.485
1772932074162.8892,-0.2236,-0.5547,-0.7807,5.609,-4.34,-2.328
1772932074177.9224,-0.2231,-0.5608,-0.7798,5.495,-4.41,-1.75
1772932074177.9224,-0.2294,-0.5569,-0.7893,5.136,-4.183,-1.645
1772932074177.9224,-0.2274,-0.554,-0.7878,4.909,-4.69,-1.575
1772932074177.9224,-0.2295,-0.5513,-0.7834,4.97,-4.497,-1.636
1772932074177.9224,-0.2319,-0.5529,-0.7823,5.285,-4.226,-1.374
1772932074193.1792,-0.2317,-0.547,-0.784,5.906,-4.209,-1.085
1772932074193.1792,-0.2296,-0.5477,-0.7839,6.072,-3.911,-0.709
1772932074193.1792,-0.2263,-0.5502,-0.7862,6.003,-3.824,-0.586
1772932074193.1792,-0.2207,-0.5495,-0.7867,5.749,-3.64,-0.464
1772932074207.8252,-0.2201,-0.5452,-0.7871,5.617,-3.649,-0.455
1772932074207.8252,-0.2206,-0.5427,-0.7861,5.609,-3.973,-0.7
1772932074207.8252,-0.2203,-0.5431,-0.7895,5.539,-4.296,-0.674
1772932074223.0974,-0.2187,-0.5485,-0.7889,5.259,-4.112,-0.744
1772932074223.0974,-0.2156,-0.5499,-0.7897,4.795,-4.165,-0.595
1772932074223.0974,-0.2203,-0.5525,-0.7851,5.031,-4.506,-0.464
1772932074223.0974,-0.2189,-0.5549,-0.7881,4.97,-4.191,-0.333
1772932074239.0981,-0.215,-0.556,-0.7874,4.883,-4.436,-0.647
1772932074239.0981,-0.2151,-0.5593,-0.7884,4.821,-4.069,-0.438
1772932074239.0981,-0.213,-0.5578,-0.7873,4.777,-3.876,-0.446
1772932074239.0981,-0.2146,-0.5582,-0.7875,4.638,-4.147,-0.569
1772932074254.8286,-0.213,-0.5578,-0.7859,4.463,-4.261,-0.691
1772932074254.8286,-0.2153,-0.5564,-0.7864,4.48,-4.27,-0.91
1772932074254.8286,-0.2153,-0.5571,-0.7853,4.235,-4.489,-0.98
1772932074254.8286,-0.2154,-0.5547,-0.7865,4.112,-2.275,-0.971
1772932074254.8286,-0.2158,-0.5546,-0.7871,3.859,-4.707,-0.98
1772932074271.1184,-0.2184,-0.5563,-0.7857,3.728,-5.04,-0.823
1772932074271.1184,-0.2194,-0.5566,-0.7875,3.684,-5.215,-1.006
1772932074271.1184,-0.2187,-0.5516,-0.7873,3.535,-5.259,-0.927
1772932074271.1184,-0.2173,-0.5537,-0.7901,3.29,-5.556,-1.12
1772932074286.735,-0.2165,-0.5536,-0.7879,2.791,-5.985,-1.645
1772932074286.735,-0.2175,-0.5522,-0.7824,2.756,-6.414,-1.365
1772932074286.735,-0.2161,-0.5554,-0.7821,2.38,-6.501,-1.566
1772932074286.735,-0.2179,-0.5585,-0.7812,2.013,-6.624,-1.356
1772932074301.901,-0.2153,-0.5555,-0.7788,1.47,-6.326,-1.05
1772932074301.901,-0.2165,-0.5565,-0.7774,1.181,-6.169,-0.971
1772932074301.901,-0.214,-0.555,-0.7745,0.901,-6.291,-1.103
1772932074317.7358,-0.2132,-0.5557,-0.7758,0.682,-5.854,-1.312
1772932074317.7358,-0.2162,-0.5558,-0.7728,0.359,-5.731,-1.041
1772932074317.7358,-0.2139,-0.5576,-0.7748,0.394,-5.854,-1.041
1772932074317.7358,-0.2147,-0.5546,-0.7749,0.516,-5.67,-0.805
1772932074333.5142,-0.2176,-0.5546,-0.7735,0.639,-5.617,-0.814
1772932074333.5142,-0.2192,-0.5518,-0.7747,0.621,-5.548,-0.77
1772932074333.5142,-0.2198,-0.5476,-0.774,0.927,-5.609,-0.901
1772932074333.5142,-0.2259,-0.5478,-0.776,0.963,-5.731,-0.927
1772932074333.5142,-0.2247,-0.5483,-0.7767,1.076,-5.416,-0.901
1772932074348.8613,-0.227,-0.5448,-0.7759,1.391,-5.513,-1.155
1772932074348.8613,-0.2273,-0.5452,-0.7748,1.242,-5.416,-1.199
1772932074348.8613,-0.2261,-0.5455,-0.7738,1.698,-5.451,-1.024
1772932074348.8613,-0.228,-0.5447,-0.7743,1.82,-5.311,-1.006
1772932074364.085,-0.2263,-0.5452,-0.777,1.916,-5.162,-1.12
1772932074364.085,-0.2279,-0.5429,-0.7764,2.047,-5.259,-1.208
1772932074364.085,-0.2289,-0.5392,-0.776,2.17,-5.486,-1.295
1772932074364.085,-0.2202,-0.539,-0.7784,2.1,-5.294,-1.558
1772932074379.327,-0.22,-0.5552,-0.7726,2.765,-5.136,-1.347
1772932074379.327,-0.2233,-0.5461,-0.7744,2.599,-4.979,-0.831
1772932074379.327,-0.2332,-0.5437,-0.7803,2.844,-5.031,-1.05
1772932074395.0774,-0.2367,-0.5427,-0.7778,3.001,-4.987,-0.91
1772932074395.0774,-0.2335,-0.5431,-0.7787,3.29,-5.407,-1.12
1772932074395.0774,-0.2296,-0.5453,-0.7795,3.675,-5.39,-1.488
1772932074395.0774,-0.2295,-0.5446,-0.777,3.719,-5.311,-1.496
1772932074411.2065,-0.2277,-0.5489,-0.7773,3.806,-5.206,-1.514
1772932074411.2065,-0.2265,-0.5523,-0.7742,3.85,-5.084,-1.435
1772932074411.2065,-0.225,-0.5562,-0.7713,3.833,-5.303,-1.242
1772932074411.2065,-0.223,-0.555,-0.7734,3.99,-4.944,-1.26
1772932074427.8052,-0.2216,-0.5563,-0.7725,3.876,-4.874,-1.4
1772932074427.8052,-0.2208,-0.5549,-0.7732,4.2,-4.935,-1.312
1772932074427.8052,-0.2236,-0.5536,-0.7723,4.349,-4.944,-1.269
1772932074427.8052,-0.2216,-0.5524,-0.7726,4.515,-4.742,-1.12
1772932074427.8052,-0.2203,-0.5536,-0.7757,4.322,-4.769,-1.295
1772932074443.1055,-0.2217,-0.5547,-0.7775,4.209,-4.567,-1.129
1772932074443.1055,-0.2228,-0.5522,-0.7785,4.165,-4.655,-1.435
1772932074443.1055,-0.2229,-0.556,-0.7765,4.191,-4.839,-1.286
1772932074443.1055,-0.2241,-0.556,-0.781,4.121,-4.961,-1.409
1772932074458.6956,-0.2262,-0.5553,-0.7809,3.99,-5.066,-0.971
1772932074458.6956,-0.2232,-0.5553,-0.7828,3.824,-5.259,-1.085
1772932074458.6956,-0.2255,-0.5544,-0.7849,3.342,-5.014,-0.866
1772932074458.6956,-0.2241,-0.5555,-0.7838,3.316,-5.197,-1.444
1772932074474.452,-0.2243,-0.5566,-0.7824,2.966,-5.022,-1.12
1772932074474.452,-0.2236,-0.5552,-0.7822,2.721,-5.215,-1.426
1772932074474.452,-0.2217,-0.5552,-0.7806,2.467,-5.513,-1.365
1772932074490.0583,-0.2222,-0.553,-0.7795,2.188,-5.171,-1.479
1772932074490.0583,-0.2216,-0.5524,-0.7768,2.03,-5.556,-1.514
1772932074490.0583,-0.2187,-0.5553,-0.778,1.759,-5.521,-1.785
1772932074490.0583,-0.2195,-0.5528,-0.7756,1.899,-5.548,-1.776
1772932074506.1492,-0.2197,-0.554,-0.7767,1.654,-5.425,-1.698
1772932074506.1492,-0.2216,-0.551,-0.7779,1.663,-5.338,-1.54
1772932074506.1492,-0.2245,-0.5514,-0.776,1.479,-5.285,-1.549
1772932074506.1492,-0.2261,-0.5497,-0.7786,1.391,-5.451,-1.68
1772932074506.1492,-0.2249,-0.5464,-0.7822,1.61,-5.635,-1.54
1772932074521.7437,-0.2248,-0.5486,-0.7798,1.496,-5.355,-1.794
1772932074521.7437,-0.2245,-0.5508,-0.7815,1.785,-5.521,-1.741
1772932074521.7437,-0.2269,-0.5498,-0.7807,1.575,-5.574,-2.047
1772932074521.7437,-0.2294,-0.5477,-0.7807,1.811,-5.626,-1.741
1772932074537.9585,-0.2319,-0.5488,-0.7826,1.549,-5.434,-1.855
1772932074537.9585,-0.2295,-0.5488,-0.7821,1.68,-5.381,-2.188
1772932074537.9585,-0.2337,-0.5482,-0.7834,1.698,-5.679,-2.31
1772932074537.9585,-0.2358,-0.5477,-0.7807,2.126,-5.539,-1.934
1772932074553.4387,-0.236,-0.5467,-0.7844,2.529,-5.705,-1.68
1772932074553.4387,-0.2314,-0.5505,-0.7804,2.45,-5.871,-1.549
1772932074553.4387,-0.233,-0.5462,-0.7807,2.406,-5.679,-1.671
1772932074553.4387,-0.2314,-0.5486,-0.781,2.765,-5.705,-1.488
1772932074569.0703,-0.2291,-0.5467,-0.7801,2.826,-5.416,-1.374
1772932074569.0703,-0.23,-0.5479,-0.7796,3.071,-5.372,-1.461
1772932074569.0703,-0.2316,-0.5442,-0.7834,3.211,-5.46,-1.636
1772932074584.7402,-0.2282,-0.5431,-0.7809,3.211,-5.723,-2.152
1772932074584.7402,-0.2296,-0.5463,-0.7815,3.264,-5.399,-1.934
1772932074584.7402,-0.2269,-0.5475,-0.7808,3.535,-5.845,-2.179
1772932074584.7402,-0.2267,-0.5503,-0.7845,3.692,-5.985,-2.319
1772932074584.7402,-0.2296,-0.551,-0.7834,3.797,-5.74,-2.152
1772932074599.7822,-0.2268,-0.5525,-0.7832,3.868,-5.976,-1.978
1772932074599.7822,-0.2283,-0.5501,-0.7788,3.789,-5.854,-2.013
1772932074599.7822,-0.226,-0.5514,-0.7862,4.06,-5.705,-1.619
1772932074599.7822,-0.2248,-0.5512,-0.7839,4.218,-5.985,-1.925
1772932074615.884,-0.2211,-0.55,-0.7836,4.165,-5.635,-1.916
1772932074615.884,-0.2208,-0.5493,-0.784,4.463,-5.994,-1.768
1772932074615.884,-0.2219,-0.55,-0.7816,4.41,-6.186,-1.951
1772932074615.884,-0.2213,-0.5525,-0.7782,4.524,-5.696,-2.056
1772932074631.0112,-0.228,-0.5494,-0.7779,4.506,-5.705,-1.986
1772932074631.0112,-0.2256,-0.5508,-0.7774,4.445,-5.652,-1.96
1772932074631.0112,-0.2237,-0.552,-0.7801,4.515,-5.74,-1.986
1772932074631.0112,-0.2212,-0.5541,-0.778,4.62,-5.652,-1.601
1772932074646.1606,-0.218,-0.5572,-0.7769,4.559,-5.574,-1.671
1772932074646.1606,-0.2184,-0.5588,-0.7813,4.086,-5.504,-2.118
1772932074646.1606,-0.2178,-0.5566,-0.7803,4.025,-5.556,-2.021
1772932074661.9688,-0.2142,-0.5588,-0.7819,4.322,-5.784,-2.599
1772932074661.9688,-0.2165,-0.5603,-0.7821,3.981,-6.02,-2.686
1772932074661.9688,-0.2182,-0.56,-0.7818,4.314,-6.169,-2.922
1772932074661.9688,-0.2269,-0.5617,-0.7809,4.804,-5.959,-2.949
1772932074677.0461,-0.2273,-0.5584,-0.7843,5.066,-6.37,-2.73
1772932074677.0461,-0.2275,-0.5577,-0.7841,5.381,-6.282,-3.264
1772932074677.0461,-0.2278,-0.5564,-0.7857,5.591,-6.501,-3.071
1772932074677.0461,-0.2279,-0.5536,-0.7878,5.845,-6.247,-3.194
1772932074677.0461,-0.2272,-0.5494,-0.7853,6.055,-6.361,-3.019
1772932074692.197,-0.2263,-0.5499,-0.7782,5.862,-6.09,-2.949
1772932074692.197,-0.2256,-0.5474,-0.7836,6.055,-6.221,-3.132
1772932074692.197,-0.2276,-0.5428,-0.7867,6.081,-6.064,-2.748
1772932074692.197,-0.2297,-0.5434,-0.7853,5.758,-6.125,-2.721
1772932074707.836,-0.2319,-0.5442,-0.787,6.143,-5.915,-2.397
1772932074707.836,-0.2283,-0.5453,-0.7849,6.239,-5.95,-1.811
1772932074707.836,-0.2255,-0.5461,-0.7862,6.58,-5.6,-1.768
1772932074723.102,-0.2201,-0.5477,-0.7842,6.624,-5.556,-1.96
1772932074723.102,-0.2162,-0.5503,-0.7856,6.431,-5.609,-1.881
1772932074723.102,-0.2147,-0.5527,-0.784,6.475,-5.6,-2.38
1772932074723.102,-0.2124,-0.5546,-0.7882,6.317,-5.338,-2.502
1772932074739.207,-0.2117,-0.5522,-0.7864,7.341,-5.801,-2.572
1772932074739.207,-0.2161,-0.5599,-0.7651,7.665,-5.731,-3.062
1772932074739.207,-0.2176,-0.566,-0.7718,6.921,-5.276,-2.546
1772932074739.207,-0.2184,-0.5725,-0.7731,7.0,-5.101,-2.161
1772932074754.668,-0.2195,-0.5636,-0.7799,6.58,-5.014,-1.619
1772932074754.668,-0.2186,-0.5569,-0.781,5.985,-4.97,-1.479
1772932074754.668,-0.2211,-0.5577,-0.782,5.766,-4.856,-1.706
1772932074754.668,-0.2206,-0.5596,-0.7724,5.548,-4.769,-1.006
1772932074754.668,-0.2294,-0.5588,-0.7697,6.011,-5.154,-0.971
1772932074771.0093,-0.2266,-0.5589,-0.7742,6.195,-5.232,-0.7
1772932074771.0093,-0.2239,-0.5559,-0.7728,6.449,-5.661,-0.849
1772932074771.0093,-0.222,-0.5547,-0.7674,6.239,-5.416,-0.989
1772932074771.0093,-0.2206,-0.5533,-0.7642,6.247,-5.25,-1.12
1772932074786.159,-0.2223,-0.5537,-0.7613,6.16,-5.031,-0.927
1772932074786.159,-0.2213,-0.5552,-0.7629,5.915,-4.848,-0.884
1772932074786.159,-0.218,-0.5547,-0.7639,5.784,-4.506,-0.779
1772932074786.159,-0.2196,-0.5533,-0.7638,5.924,-4.314,-0.578
1772932074802.0144,-0.2137,-0.5581,-0.7639,5.364,-4.305,-0.245
1772932074802.0144,-0.2141,-0.5592,-0.7663,5.049,-4.506,-0.613
1772932074802.0144,-0.2133,-0.5636,-0.7616,4.322,-4.734,-0.7
1772932074818.1113,-0.2115,-0.5686,-0.758,3.876,-5.268,-1.321
1772932074818.1113,-0.2128,-0.5666,-0.7554,2.949,-5.53,-1.479
1772932074818.1113,-0.2111,-0.5639,-0.755,2.625,-5.758,-2.118
1772932074818.1113,-0.2139,-0.563,-0.751,2.607,-5.758,-2.284
1772932074833.6587,-0.2165,-0.5644,-0.7513,2.984,-6.169,-2.266
1772932074833.6587,-0.2153,-0.5622,-0.7576,3.421,-6.099,-1.995
1772932074833.6587,-0.218,-0.5548,-0.7657,4.244,-5.801,-1.549
1772932074833.6587,-0.2209,-0.5474,-0.7691,5.679,-5.058,-1.251
1772932074833.6587,-0.2228,-0.5528,-0.7746,6.694,-4.436,-0.849
1772932074848.814,-0.2186,-0.5517,-0.7829,6.633,-3.833,-0.35
1772932074848.814,-0.2128,-0.5553,-0.7875,6.449,-3.553,-0.254
1772932074848.814,-0.2079,-0.5546,-0.7915,5.582,-3.308,-0.21
1772932074848.814,-0.1998,-0.555,-0.7929,4.585,-3.045,0.061
1772932074863.8684,-0.1994,-0.5564,-0.79,4.104,-3.474,-0.7
1772932074863.8684,-0.2012,-0.5608,-0.7884,3.369,-3.911,-0.858
1772932074863.8684,-0.2085,-0.5597,-0.7864,3.08,-4.016,-0.787
1772932074879.483,-0.2107,-0.5638,-0.7843,2.546,-4.226,-1.242
1772932074879.483,-0.2169,-0.5677,-0.7839,1.846,-4.41,-1.4
1772932074879.483,-0.2192,-0.5699,-0.7803,1.383,-4.279,-1.522
1772932074879.483,-0.2257,-0.5697,-0.7785,1.383,-4.603,-1.4
1772932074895.3599,-0.2292,-0.5716,-0.7732,0.823,-5.031,-1.435
1772932074895.3599,-0.2311,-0.5685,-0.7717,0.744,-5.145,-1.278
1772932074895.3599,-0.2369,-0.5647,-0.7732,1.085,-5.372,-1.435
1772932074895.3599,-0.237,-0.561,-0.7718,1.768,-5.6,-1.54
1772932074910.9458,-0.2363,-0.5571,-0.7764,2.17,-5.635,-1.785
1772932074910.9458,-0.2383,-0.5563,-0.7799,2.739,-5.766,-1.698
1772932074910.9458,-0.2371,-0.5545,-0.7873,2.739,-5.95,-1.47
1772932074910.9458,-0.237,-0.555,-0.7935,2.739,-5.959,-1.89
1772932074926.1677,-0.2336,-0.5564,-0.7978,2.389,-6.843,-4.445
1772932074926.1677,-0.2307,-0.5588,-0.7988,1.47,-7.735,-2.45
1772932074926.1677,-0.2269,-0.566,-0.7971,0.647,-8.654,-2.433
1772932074926.1677,-0.2303,-0.5704,-0.7937,-0.306,-9.056,-2.371
1772932074926.1677,-0.2283,-0.5732,-0.7893,-0.927,-9.459,-2.126
1772932074941.9907,-0.2266,-0.5744,-0.7851,-1.015,-9.59,-1.951
1772932074941.9907,-0.2211,-0.5763,-0.7787,-1.173,-9.345,-1.566
1772932074941.9907,-0.2169,-0.5746,-0.7747,-0.945,-8.697,-1.242
1772932074941.9907,-0.2144,-0.5705,-0.7747,-0.63,-8.881,-1.067
1772932074957.1648,-0.2158,-0.5656,-0.7696,0.245,-8.225,-0.945
1772932074957.1648,-0.2184,-0.5641,-0.767,1.619,-7.971,-0.936
1772932074957.1648,-0.2191,-0.5627,-0.76,2.013,-7.402,-0.823
1772932074973.2234,-0.2182,-0.5614,-0.7525,2.914,-6.834,-0.787
1772932074973.2234,-0.2133,-0.5571,-0.7533,3.211,-6.064,-1.076
1772932074973.2234,-0.2097,-0.5524,-0.753,3.167,-5.355,-1.208
1772932074973.2234,-0.2077,-0.5472,-0.7525,3.395,-4.646,-1.12
1772932074988.353,-0.2092,-0.5457,-0.7535,3.605,-4.638,-1.426
1772932074988.353,-0.2117,-0.5451,-0.7573,3.447,-5.031,-1.391
1772932074988.353,-0.2175,-0.5428,-0.759,3.666,-4.734,-1.732
1772932074988.353,-0.223,-0.5399,-0.7626,3.587,-4.629,-1.593
1772932075003.4968,-0.2262,-0.5405,-0.7695,3.561,-4.952,-1.759
1772932075003.4968,-0.2305,-0.5381,-0.7703,3.561,-5.338,-1.96
1772932075003.4968,-0.2301,-0.5382,-0.772,3.92,-5.521,-1.873
1772932075003.4968,-0.2273,-0.5466,-0.7761,3.754,-5.6,-1.584
1772932075003.4968,-0.2292,-0.5463,-0.7785,3.78,-5.775,-1.899
1772932075019.6997,-0.2282,-0.5477,-0.7819,3.518,-5.827,-1.829
1772932075019.6997,-0.228,-0.5472,-0.7773,3.237,-5.827,-2.03
1772932075019.6997,-0.2275,-0.5471,-0.7809,3.413,-5.775,-1.96
1772932075019.6997,-0.2281,-0.5452,-0.781,3.631,-6.099,-2.161
1772932075035.5767,-0.2211,-0.5494,-0.7788,3.465,-6.37,-2.17
1772932075035.5767,-0.2266,-0.5544,-0.7772,3.859,-6.361,-2.643
1772932075035.5767,-0.2203,-0.56,-0.7766,3.868,-6.247,-2.87
1772932075051.219,-0.2186,-0.5564,-0.7745,3.833,-5.941,-2.739
1772932075051.219,-0.2181,-0.5605,-0.7724,3.85,-5.994,-2.809
1772932075051.219,-0.221,-0.563,-0.7727,3.92,-5.723,-2.783
1772932075051.219,-0.2245,-0.566,-0.7728,3.71,-5.451,-2.415
1772932075066.7983,-0.2274,-0.5649,-0.7721,3.587,-5.04,-1.951
1772932075066.7983,-0.2281,-0.5675,-0.7738,3.692,-4.786,-1.689
1772932075066.7983,-0.2262,-0.5668,-0.7753,3.736,-4.891,-1.549
1772932075066.7983,-0.227,-0.5645,-0.7766,3.92,-4.594,-1.059
1772932075082.8645,-0.2267,-0.5647,-0.7794,3.728,-4.769,-0.805
1772932075082.8645,-0.2258,-0.5629,-0.7799,3.85,-4.585,-0.735
1772932075082.8645,-0.2273,-0.5607,-0.7807,3.64,-4.454,-0.42
1772932075082.8645,-0.228,-0.5623,-0.781,3.859,-4.567,-0.542
1772932075098.8882,-0.228,-0.5634,-0.7811,3.579,-4.961,-0.455
1772932075098.8882,-0.2292,-0.5593,-0.7793,3.386,-4.725,-0.367
1772932075098.8882,-0.2291,-0.5599,-0.7841,3.579,-4.69,-0.297
1772932075098.8882,-0.2307,-0.5578,-0.7812,3.474,-4.987,-0.087
1772932075098.8882,-0.2269,-0.5561,-0.7807,3.631,-5.206,-0.691
1772932075114.0369,-0.2235,-0.5577,-0.7787,3.754,-4.883,-0.534
1772932075114.0369,-0.2222,-0.5586,-0.778,3.64,-4.751,-0.656
1772932075114.0369,-0.2188,-0.5607,-0.7749,3.474,-4.375,-0.779
1772932075114.0369,-0.2181,-0.5584,-0.7756,3.237,-4.489,-0.254
1772932075129.36,-0.2189,-0.5565,-0.7784,3.404,-4.471,-0.079
1772932075129.36,-0.2145,-0.5558,-0.7777,3.456,-4.952,-0.507
1772932075129.36,-0.2151,-0.56,-0.7799,3.605,-4.699,-0.875
1772932075144.5483,-0.2153,-0.5646,-0.776,3.526,-5.058,-1.05
1772932075144.5483,-0.2111,-0.5699,-0.7697,3.316,-4.55,-0.936
1772932075144.5483,-0.2138,-0.5688,-0.7698,2.774,-4.506,-0.735
1772932075144.5483,-0.2135,-0.5675,-0.7691,2.94,-4.786,-0.472
1772932075160.9414,-0.2183,-0.5671,-0.7703,2.424,-4.226,-0.367
1772932075160.9414,-0.2209,-0.5663,-0.7652,2.931,-4.48,-0.254
1772932075160.9414,-0.2217,-0.566,-0.7657,3.036,-4.279,0.035
1772932075160.9414,-0.2205,-0.5638,-0.7667,2.922,-3.876,0.14
1772932075176.1113,-0.2199,-0.5588,-0.7668,3.246,-3.841,0.315
1772932075176.1113,-0.2208,-0.5571,-0.7659,3.377,-4.06,0.429
1772932075176.1113,-0.2191,-0.5503,-0.7676,3.229,-3.981,0.394
1772932075176.1113,-0.2181,-0.5522,-0.7708,3.377,-3.981,-0.219
1772932075176.1113,-0.2177,-0.5499,-0.7707,3.027,-4.165,-0.236
1772932075191.237,-0.2177,-0.5497,-0.7713,3.089,-4.445,-0.578
1772932075191.237,-0.2147,-0.552,-0.7733,2.8,-4.349,-0.604
1772932075191.237,-0.2112,-0.5546,-0.7756,2.485,-4.471,-0.796
1772932075206.8213,-0.2147,-0.5549,-0.7752,2.459,-4.909,-1.242
1772932075206.8213,-0.217,-0.5611,-0.7726,2.249,-4.9,-1.33
1772932075206.8213,-0.2156,-0.5625,-0.7704,2.441,-4.996,-1.365
1772932075206.8213,-0.2144,-0.5633,-0.7706,2.371,-4.848,-1.146
1772932075223.022,-0.2172,-0.5634,-0.7707,2.406,-4.603,-1.05
1772932075223.022,-0.2174,-0.5643,-0.7709,2.616,-4.655,-0.901
1772932075223.022,-0.2175,-0.5641,-0.7705,3.036,-6.711,-0.752
1772932075223.022,-0.2184,-0.5618,-0.7726,3.229,-4.681,-0.63
1772932075238.7637,-0.217,-0.5608,-0.7712,3.535,-4.48,-0.464
1772932075238.7637,-0.2187,-0.5603,-0.7745,3.596,-4.287,-0.464
1772932075238.7637,-0.2163,-0.5595,-0.7731,3.5,-4.314,-0.201
1772932075238.7637,-0.2171,-0.559,-0.7748,3.561,-4.489,-0.42
1772932075254.8726,-0.2167,-0.556,-0.7742,3.413,-4.147,-0.464
1772932075254.8726,-0.2202,-0.5564,-0.7757,3.456,-3.99,-0.595
1772932075254.8726,-0.2194,-0.5611,-0.7745,3.246,-4.261,-0.446
1772932075254.8726,-0.2223,-0.5616,-0.7764,3.264,-4.209,-0.534
1772932075254.8726,-0.2205,-0.5575,-0.7796,3.185,-4.095,-0.578
1772932075271.3687,-0.222,-0.5594,-0.7782,3.045,-4.051,-0.542
1772932075271.3687,-0.2245,-0.5586,-0.779,2.975,-4.112,-0.271
1772932075271.3687,-0.2225,-0.5586,-0.7774,2.958,-4.156,-0.525
1772932075271.3687,-0.224,-0.5577,-0.7773,2.905,-4.41,-0.639
1772932075286.8618,-0.221,-0.5635,-0.7759,2.625,-4.401,-0.394
1772932075286.8618,-0.2212,-0.5608,-0.7736,2.704,-4.611,-0.542
1772932075286.8618,-0.2224,-0.5599,-0.7741,2.704,-4.856,-0.63
1772932075286.8618,-0.224,-0.5649,-0.7731,3.01,-4.979,-0.507
1772932075302.1155,-0.2269,-0.5627,-0.7701,3.159,-4.918,-0.534
1772932075302.1155,-0.2242,-0.5614,-0.7726,3.334,-4.821,-0.289
1772932075302.1155,-0.2218,-0.5608,-0.7716,3.491,-4.926,-0.289
1772932075317.8545,-0.2209,-0.5591,-0.7756,3.325,-4.751,-0.158
1772932075317.8545,-0.2205,-0.5606,-0.7796,3.299,-4.751,-0.14
1772932075317.8545,-0.2159,-0.5602,-0.7752,3.456,-4.777,-0.446
1772932075317.8545,-0.2196,-0.5569,-0.7744,3.027,-4.664,-0.429
1772932075332.552,-0.2194,-0.5556,-0.7795,3.036,-4.594,-0.411
1772932075332.552,-0.2218,-0.5566,-0.779,2.958,-4.541,-0.621
1772932075332.552,-0.2197,-0.5586,-0.7787,3.194,-4.76,-0.674
1772932075332.552,-0.2231,-0.5581,-0.7754,2.774,-4.611,-0.569
1772932075332.552,-0.2214,-0.5611,-0.7787,3.176,-4.883,-0.691
1772932075348.1729,-0.2244,-0.5636,-0.7784,3.159,-4.673,-0.376
1772932075348.1729,-0.2257,-0.5572,-0.7771,3.08,-4.952,-0.324
1772932075348.1729,-0.2208,-0.5592,-0.7759,3.308,-4.795,-0.779
1772932075348.1729,-0.2211,-0.5598,-0.7754,3.535,-5.101,-0.63
1772932075362.8835,-0.2198,-0.5624,-0.7723,3.763,-4.935,-0.542
1772932075362.8835,-0.2226,-0.5638,-0.7736,3.666,-4.83,-0.333
1772932075362.8835,-0.22,-0.5614,-0.7713,3.614,-4.681,0.271
1772932075379.2896,-0.2223,-0.5632,-0.7718,3.43,-4.515,0.333
1772932075379.2896,-0.223,-0.5589,-0.7724,3.369,-4.261,0.306
1772932075379.2896,-0.2231,-0.555,-0.7782,3.421,-4.305,-0.114
1772932075379.2896,-0.2244,-0.5533,-0.7774,3.386,-4.489,-0.499
1772932075394.8604,-0.2255,-0.5546,-0.7767,3.369,-4.532,-0.595
1772932075394.8604,-0.2265,-0.5542,-0.7758,3.194,-4.707,-0.464
1772932075394.8604,-0.2269,-0.558,-0.7764,3.815,-4.874,-0.779
1772932075394.8604,-0.2264,-0.5625,-0.7722,3.666,-5.311,-0.77
1772932075410.166,-0.2248,-0.5638,-0.7737,3.631,-5.075,-0.639
1772932075410.166,-0.2255,-0.5635,-0.7737,3.815,-5.197,-0.613
1772932075410.166,-0.2219,-0.5635,-0.7758,4.191,-5.197,-0.787
1772932075410.166,-0.2228,-0.547,-0.7727,4.253,-5.232,-0.884
1772932075410.166,-0.2151,-0.5558,-0.7684,4.646,-5.338,-1.549
1772932075425.0781,-0.2206,-0.5661,-0.7726,4.935,-5.18,-1.426
1772932075425.0781,-0.2244,-0.5638,-0.7779,4.147,-5.224,-1.234
1772932075425.0781,-0.23,-0.5626,-0.7758,4.016,-5.574,-1.032
1772932075425.0781,-0.2351,-0.5644,-0.7702,3.806,-5.259,-0.752
1772932075439.859,-0.2308,-0.5653,-0.7728,4.008,-5.058,-0.333
1772932075439.859,-0.2221,-0.5688,-0.7731,4.191,-4.76,0.306
1772932075439.859,-0.2219,-0.5624,-0.776,4.06,-4.567,0.464
1772932075454.931,-0.2243,-0.5649,-0.7806,3.92,-5.46,0.201
1772932075454.931,-0.2258,-0.5674,-0.7803,3.658,-5.836,0.56
1772932075454.931,-0.2234,-0.5672,-0.7767,3.255,-5.95,0.709
1772932075454.931,-0.2289,-0.5613,-0.7776,3.447,-6.519,1.321
1772932075470.0635,-0.2308,-0.56,-0.7757,4.62,-7.481,2.074
1772932075470.0635,-0.2299,-0.5577,-0.7774,5.084,-7.77,2.66
1772932075470.0635,-0.2283,-0.5532,-0.774,4.349,-7.857,1.837
1772932075470.0635,-0.2267,-0.5799,-0.7263,4.287,-6.965,1.164
1772932075485.7734,-0.3176,-0.6816,-0.2872,7.061,3.124,3.71
1772932075485.7734,-0.144,-0.5865,-0.786,7.84,5.241,6.247
1772932075485.7734,-0.2113,-0.5214,-0.8091,6.886,1.82,5.495
1772932075501.4116,-0.2309,-0.4936,-0.8375,7.997,-3.404,2.739
1772932075501.4116,-0.2456,-0.5212,-0.819,8.575,-6.239,-0.193
1772932075501.4116,-0.2611,-0.5599,-0.7952,8.873,-8.164,-1.978
1772932075501.4116,-0.2561,-0.5916,-0.772,8.015,-8.068,-1.995
1772932075501.4116,-0.2445,-0.5804,-0.7648,7.096,-7.438,-0.674
1772932075516.5635,-0.2212,-0.5708,-0.7715,6.431,-6.72,0.507
1772932075516.5635,-0.2091,-0.5587,-0.7721,6.737,-6.895,1.444
1772932075516.5635,-0.2054,-0.5394,-0.7726,7.718,-6.475,0.744
1772932075516.5635,-0.206,-0.5358,-0.7679,8.348,-6.598,-0.289
1772932075532.6638,-0.2137,-0.5451,-0.7713,9.494,-6.843,-1.26
1772932075532.6638,-0.2195,-0.5607,-0.7637,10.701,-7.665,-1.61
1772932075532.6638,-0.2115,-0.5843,-0.7786,10.815,-7.192,-1.54
1772932075532.6638,-0.2219,-0.5533,-0.7591,10.693,-7.429,-1.33
1772932075547.8818,-0.2197,-0.4845,-0.7958,11.034,-7.49,-1.522
1772932075547.8818,-0.2397,-0.5137,-0.7981,13.58,-8.592,-2.879
1772932075547.8818,-0.2839,-0.6377,-0.7435,16.45,-9.144,-0.499
1772932075547.8818,-0.3078,-0.6667,-0.697,16.608,-7.079,3.027
1772932075563.022,-0.246,-0.6553,-0.7243,15.356,-2.004,5.513
1772932075563.022,-0.1581,-0.5924,-0.7424,14.936,-0.551,5.46
1772932075563.022,-0.1273,-0.5516,-0.7563,14.271,-0.166,3.22
1772932075579.4297,-0.1111,-0.5366,-0.7551,15.146,-0.359,0.551
1772932075579.4297,-0.1306,-0.5447,-0.7557,15.453,-0.613,-1.444
1772932075579.4297,-0.1485,-0.5628,-0.7585,14.849,-0.175,-3.596
1772932075579.4297,-0.1663,-0.5854,-0.7598,12.547,1.251,-3.439
1772932075594.9607,-0.1871,-0.5856,-0.7688,10.386,1.794,-2.721
1772932075594.9607,-0.205,-0.5774,-0.7752,8.549,2.765,-2.284
1772932075594.9607,-0.2192,-0.5587,-0.7819,7.543,3.447,-1.593
1772932075594.9607,-0.2275,-0.5485,-0.7897,6.93,3.203,-1.706
1772932075594.9607,-0.2362,-0.5502,-0.7962,6.781,2.695,-1.654
1772932075611.0293,-0.2447,-0.5613,-0.7948,6.711,1.829,-1.724
1772932075611.0293,-0.2452,-0.5661,-0.7943,6.878,0.91,-1.347
1772932075611.0293,-0.2452,-0.5714,-0.7882,7.114,0.122,-0.884
1772932075611.0293,-0.2464,-0.5821,-0.7778,7.77,-0.718,-0.691
1772932075627.0903,-0.2478,-0.5942,-0.7676,8.172,-1.076,0.096
1772932075627.0903,-0.2459,-0.5943,-0.7581,8.549,-1.68,0.858
1772932075627.0903,-0.2551,-0.6083,-0.7482,9.783,-2.056,1.759
1772932075627.0903,-0.2389,-0.6042,-0.7476,10.491,-2.572,2.511
1772932075642.0122,-0.2298,-0.6017,-0.7515,10.491,-2.712,2.529
1772932075642.0122,-0.2189,-0.5933,-0.7555,10.518,-2.931,2.459
1772932075642.0122,-0.215,-0.5819,-0.7562,10.43,-3.413,1.881
1772932075642.0122,-0.2164,-0.5761,-0.7584,10.369,-3.526,1.951
1772932075642.0122,-0.2176,-0.5782,-0.7523,10.456,-3.631,1.417
1772932075657.4016,-0.2152,-0.5851,-0.7535,10.579,-4.165,1.286
1772932075657.4016,-0.2141,-0.5819,-0.7576,10.404,-4.051,2.03
1772932075657.4016,-0.209,-0.5761,-0.7559,10.273,-4.06,2.301
1772932075673.0588,-0.2042,-0.5785,-0.7616,9.835,-3.518,1.785
1772932075673.0588,-0.2062,-0.5732,-0.7654,9.345,-2.914,1.802
1772932075673.0588,-0.2009,-0.5761,-0.7713,8.969,-2.389,1.164
1772932075673.0588,-0.1986,-0.5725,-0.7734,8.155,-2.467,1.015
1772932075688.3853,-0.207,-0.5693,-0.7657,7.595,-2.345,0.315
1772932075688.3853,-0.2119,-0.5667,-0.7651,7.236,-2.52,0.009
1772932075688.3853,-0.2172,-0.5686,-0.7586,7.324,-2.345,-0.114
1772932075688.3853,-0.2215,-0.5741,-0.7571,7.438,-2.555,-0.49
1772932075704.492,-0.2227,-0.586,-0.7532,7.315,-1.82,-0.385
1772932075704.492,-0.2314,-0.5957,-0.751,7.192,-0.884,0.954
1772932075704.492,-0.2282,-0.5915,-0.7598,7.157,-0.149,1.671
1772932075704.492,-0.2258,-0.5847,-0.7683,6.86,0.14,2.441
1772932075704.492,-0.2262,-0.5721,-0.7688,6.554,0.158,2.756
1772932075721.0876,-0.2259,-0.5729,-0.7681,6.326,0.009,2.406
1772932075721.0876,-0.2267,-0.5712,-0.7687,6.309,-0.263,2.328
1772932075721.0876,-0.2235,-0.5666,-0.7618,5.495,-0.341,2.056
1772932075721.0876,-0.2219,-0.5632,-0.7638,4.961,-0.385,1.505
1772932075736.663,-0.2196,-0.5646,-0.761,4.419,-0.096,1.024
1772932075736.663,-0.22,-0.5676,-0.763,3.78,0.0,1.208
1772932075736.663,-0.2241,-0.5649,-0.7662,3.08,0.306,1.759
1772932075736.663,-0.225,-0.5606,-0.7696,2.004,0.184,1.549
1772932075752.295,-0.2264,-0.5617,-0.7696,1.365,-0.394,1.339
1772932075752.295,-0.2294,-0.5597,-0.769,0.761,-0.63,1.103
1772932075752.295,-0.232,-0.5627,-0.7701,0.525,-0.936,1.155
1772932075767.952,-0.2306,-0.5637,-0.7723,0.516,-2.196,1.312
1772932075767.952,-0.229,-0.5658,-0.7707,-0.035,-2.669,0.499
1772932075767.952,-0.2276,-0.5669,-0.7692,-0.289,-3.106,0.0
1772932075767.952,-0.2264,-0.5683,-0.7664,-0.324,-3.797,-0.158
1772932075767.952,-0.2249,-0.5702,-0.7624,-0.254,-4.209,-0.849
1772932075783.1577,-0.2187,-0.571,-0.7655,0.026,-4.646,-1.452
1772932075783.1577,-0.2178,-0.5708,-0.7657,-0.175,-5.014,-1.916
1772932075783.1577,-0.2155,-0.5761,-0.7646,0.0,-5.731,-2.179
1772932075783.1577,-0.2156,-0.5808,-0.7634,-0.236,-6.003,-2.126
1772932075798.414,-0.2176,-0.5792,-0.7635,-0.411,-6.423,-2.336
1772932075798.414,-0.2044,-0.5903,-0.7365,0.367,-5.644,-2.774
1772932075798.414,-0.202,-0.6002,-0.7323,0.849,-4.795,-2.634
1772932075798.414,-0.2174,-0.589,-0.7378,1.829,-3.386,-2.45
1772932075814.043,-0.2278,-0.5788,-0.7602,2.581,-3.124,-2.494
1772932075814.043,-0.2262,-0.5757,-0.7746,3.342,-3.902,-1.846
1772932075814.043,-0.2284,-0.5723,-0.7768,3.194,-4.594,-1.698
1772932075814.043,-0.2263,-0.571,-0.7962,3.299,-4.926,-2.056
1772932075829.268,-0.2223,-0.5757,-0.7767,2.581,-4.952,-2.52
1772932075829.268,-0.2166,-0.5783,-0.7701,1.47,-4.848,-2.572
1772932075829.268,-0.2116,-0.585,-0.7599,0.403,-5.25,-2.625
1772932075845.0762,-0.211,-0.5862,-0.7534,-0.131,-5.399,-2.669
1772932075845.0762,-0.2177,-0.5855,-0.7574,-0.175,-5.679,-2.485
1772932075845.0762,-0.2215,-0.5858,-0.7542,-0.333,-5.67,-2.441
1772932075845.0762,-0.2247,-0.5794,-0.7547,0.297,-6.037,-2.511
1772932075861.2246,-0.2264,-0.5724,-0.7558,0.613,-5.897,-2.783
1772932075861.2246,-0.2262,-0.5643,-0.7599,1.435,-5.32,-2.433
1772932075861.2246,-0.2263,-0.5557,-0.765,3.036,-4.62,-2.196
1772932075861.2246,-0.2165,-0.5641,-0.7712,4.069,-4.209,-2.091
1772932075861.2246,-0.214,-0.5735,-0.7716,4.287,-3.518,-1.768
1772932075877.7517,-0.2099,-0.5792,-0.7765,3.675,-3.036,-1.137
1772932075877.7517,-0.2075,-0.5844,-0.776,3.132,-3.08,-0.385
1772932075877.7517,-0.2083,-0.5821,-0.7741,2.257,-3.194,-0.122
1772932075877.7517,-0.2069,-0.5782,-0.7701,1.26,-3.203,-0.07
1772932075893.4468,-0.2102,-0.5733,-0.7726,0.858,-3.08,-0.411
1772932075893.4468,-0.2142,-0.5768,-0.7709,0.744,-3.509,-0.42
1772932075893.4468,-0.2142,-0.5774,-0.7715,0.438,-4.043,-1.12
1772932075893.4468,-0.2153,-0.5776,-0.7681,-0.052,-4.139,-1.234
1772932075909.2932,-0.2162,-0.5778,-0.7638,-0.061,-4.926,-1.575
1772932075909.2932,-0.2144,-0.5772,-0.756,-0.341,-5.504,-1.89
1772932075909.2932,-0.217,-0.5742,-0.7542,-0.315,-5.609,-2.205
1772932075909.2932,-0.2186,-0.5721,-0.7509,0.158,-5.897,-2.328
1772932075924.2551,-0.2211,-0.5685,-0.755,0.656,-6.423,-2.467
1772932075924.2551,-0.2241,-0.5644,-0.7591,1.295,-6.239,-3.299
1772932075924.2551,-0.2238,-0.5661,-0.7624,1.663,-7.131,-3.334
1772932075938.9001,-0.2268,-0.5663,-0.7699,2.319,-7.07,-3.526
1772932075938.9001,-0.2254,-0.5633,-0.7773,2.223,-7.219,-3.561
1772932075938.9001,-0.2211,-0.5652,-0.7842,2.301,-8.155,-3.745
1772932075938.9001,-0.2205,-0.5671,-0.7922,1.496,-9.135,-4.025
1772932075953.83,-0.2176,-0.5697,-0.7926,0.77,-10.036,-4.594
1772932075953.83,-0.2133,-0.575,-0.796,-0.91,-11.349,-5.154
1772932075953.83,-0.2112,-0.58,-0.7886,-2.1,-12.04,-5.582
1772932075953.83,-0.2089,-0.5899,-0.7834,-2.581,-12.303,-5.556
1772932075953.83,-0.2059,-0.5966,-0.7782,-2.975,-12.346,-5.46
1772932075968.869,-0.2028,-0.6002,-0.774,-3.57,-11.9,-4.883
1772932075968.869,-0.1972,-0.5963,-0.7718,-3.404,-11.839,-4.384
1772932075984.8965,-0.1999,-0.5925,-0.7594,-3.027,-11.121,-3.692
1772932075984.8965,-0.209,-0.5893,-0.7542,-2.047,-10.281,-3.491
1772932075984.8965,-0.2077,-0.5846,-0.7489,-0.613,-9.529,-3.255
1772932075984.8965,-0.2072,-0.5867,-0.7405,0.613,-8.129,-2.975
1772932076001.1396,-0.2052,-0.5876,-0.7382,2.056,-6.694,-2.354
1772932076001.1396,-0.2023,-0.5849,-0.7394,2.651,-5.784,-2.144
1772932076001.1396,-0.205,-0.5802,-0.7428,2.853,-4.725,-1.566
1772932076001.1396,-0.2071,-0.5751,-0.7431,2.861,-4.06,-1.19
1772932076001.1396,-0.2126,-0.5728,-0.7488,3.395,-4.139,-1.514
1772932076016.9792,-0.2184,-0.5652,-0.7538,3.299,-4.48,-1.645
1772932076016.9792,-0.2183,-0.5612,-0.7551,3.491,-4.769,-1.829
1772932076016.9792,-0.219,-0.5617,-0.759,3.868,-5.119,-1.794
1772932076016.9792,-0.2201,-0.5616,-0.7613,3.736,-5.022,-2.03
1772932076032.6067,-0.2194,-0.5622,-0.7634,4.008,-5.162,-2.091
1772932076032.6067,-0.2216,-0.5616,-0.7655,3.894,-5.381,-2.257
1772932076032.6067,-0.2206,-0.564,-0.7702,3.78,-5.714,-2.433
1772932076032.6067,-0.2158,-0.566,-0.7706,3.553,-5.827,-2.756
1772932076048.1443,-0.2214,-0.5655,-0.7724,3.64,-6.125,-2.564
1772932076048.1443,-0.2223,-0.5659,-0.7727,3.167,-6.151,-2.581
1772932076048.1443,-0.2187,-0.5657,-0.7742,3.526,-6.431,-2.8
1772932076048.1443,-0.2148,-0.5649,-0.7754,3.377,-6.641,-2.678
1772932076048.1443,-0.2164,-0.5667,-0.7701,3.281,-6.808,-2.424
1772932076063.7568,-0.2116,-0.5691,-0.7702,3.474,-7.105,-2.52
1772932076063.7568,-0.2111,-0.5683,-0.7672,3.509,-7.026,-2.835
1772932076079.6028,-0.2112,-0.5709,-0.7672,3.474,-7.07,-3.045
1772932076079.6028,-0.2119,-0.5734,-0.7638,3.377,-7.009,-3.194
1772932076079.6028,-0.2121,-0.5716,-0.7643,3.098,-6.685,-2.853
1772932076079.6028,-0.2133,-0.5737,-0.7637,3.027,-6.772,-3.176
1772932076079.6028,-0.214,-0.5727,-0.7617,2.712,-6.606,-2.791
1772932076094.4578,-0.2181,-0.5724,-0.7607,2.721,-6.317,-2.748
1772932076094.4578,-0.2194,-0.5752,-0.762,2.765,-6.143,-2.739
1772932076094.4578,-0.2207,-0.5773,-0.7621,2.993,-5.871,-2.634
1772932076094.4578,-0.2237,-0.5804,-0.7621,3.124,-5.897,-2.774
1772932076109.7886,-0.2253,-0.5827,-0.7612,3.334,-5.968,-2.529
1772932076109.7886,-0.2242,-0.5804,-0.7605,3.43,-6.02,-2.616
1772932076109.7886,-0.2239,-0.5808,-0.7641,3.43,-6.072,-2.502
1772932076109.7886,-0.2211,-0.5795,-0.763,3.614,-5.758,-2.38
1772932076125.7927,-0.2186,-0.5809,-0.7619,3.447,-5.775,-2.511
1772932076125.7927,-0.2181,-0.5766,-0.764,3.325,-5.81,-2.538
1772932076125.7927,-0.2169,-0.5772,-0.7645,3.36,-5.705,-2.328
1772932076125.7927,-0.2123,-0.5811,-0.7611,3.509,-5.031,-2.319
1772932076141.5918,-0.2108,-0.5772,-0.7627,3.465,-4.69,-2.039
1772932076141.5918,-0.2077,-0.5781,-0.7639,3.649,-4.261,-1.724
1772932076141.5918,-0.207,-0.58,-0.7654,3.666,-4.41,-1.768
1772932076156.8767,-0.2114,-0.5808,-0.7654,3.605,-4.287,-1.426
1772932076156.8767,-0.214,-0.5781,-0.7702,3.377,-3.868,-1.785
1772932076156.8767,-0.2178,-0.5794,-0.7685,3.255,-4.174,-2.126
1772932076156.8767,-0.204,-0.5764,-0.7654,3.019,-3.78,-2.118
1772932076156.8767,-0.2195,-0.581,-0.7673,2.905,-4.165,-1.986
1772932076172.2097,-0.2206,-0.5793,-0.7674,2.861,-4.349,-1.969
1772932076172.2097,-0.2217,-0.5774,-0.7654,2.59,-4.463,-1.689
1772932076172.2097,-0.2236,-0.5758,-0.7658,2.616,-4.603,-1.663
1772932076172.2097,-0.2185,-0.577,-0.7653,2.888,-4.576,-1.505
1772932076188.1465,-0.2195,-0.5761,-0.7649,2.94,-4.366,-1.444
1772932076188.1465,-0.2198,-0.5727,-0.7652,3.22,-4.48,-1.321
1772932076188.1465,-0.2167,-0.5743,-0.7637,3.308,-4.13,-1.208
1772932076188.1465,-0.2158,-0.5743,-0.7641,3.535,-4.104,-1.61
1772932076203.2925,-0.2143,-0.5719,-0.7665,3.553,-4.445,-1.671
1772932076203.2925,-0.2125,-0.573,-0.7671,3.386,-4.673,-1.75
1772932076203.2925,-0.2102,-0.5739,-0.7683,3.474,-4.848,-1.873
1772932076203.2925,-0.2124,-0.5732,-0.7687,3.176,-5.197,-1.934
1772932076218.9023,-0.2099,-0.5782,-0.7706,3.054,-5.189,-1.969
1772932076218.9023,-0.2129,-0.5741,-0.7691,2.896,-5.232,-2.065
1772932076218.9023,-0.2128,-0.5757,-0.772,2.651,-5.469,-1.881
1772932076234.5945,-0.2156,-0.575,-0.7718,2.476,-5.46,-2.03
1772932076234.5945,-0.2143,-0.5787,-0.7677,2.371,-5.688,-1.881
1772932076234.5945,-0.217,-0.5769,-0.7706,2.257,-5.478,-1.785
1772932076234.5945,-0.2167,-0.5772,-0.7673,2.494,-5.469,-1.768
1772932076251.0342,-0.2162,-0.5778,-0.7679,2.205,-5.241,-1.575
1772932076251.0342,-0.2157,-0.5788,-0.7647,2.651,-5.46,-1.619
1772932076251.0342,-0.2144,-0.5782,-0.7637,2.765,-5.469,-1.566
1772932076251.0342,-0.2117,-0.5767,-0.7637,2.651,-5.215,-1.671
1772932076251.0342,-0.2058,-0.5758,-0.7618,3.071,-5.11,-1.61
1772932076266.3135,-0.2047,-0.5763,-0.761,3.15,-5.022,-1.741
1772932076266.3135,-0.2016,-0.5741,-0.7606,3.027,-4.777,-1.837
1772932076266.3135,-0.204,-0.5732,-0.7654,3.334,-4.952,-1.794
1772932076266.3135,-0.2065,-0.5729,-0.7659,3.272,-4.611,-1.741
1772932076282.1316,-0.209,-0.5732,-0.7654,3.281,-4.305,-1.899
1772932076282.1316,-0.2147,-0.5739,-0.7626,3.246,-4.287,-1.417
1772932076282.1316,-0.2163,-0.5708,-0.7706,3.045,-4.06,-1.356
1772932076282.1316,-0.2129,-0.571,-0.7695,2.861,-4.428,-1.654
1772932076298.2158,-0.2148,-0.5732,-0.7668,2.686,-4.55,-1.75
1772932076298.2158,-0.2148,-0.574,-0.7673,2.494,-4.244,-1.802
1772932076298.2158,-0.2154,-0.5724,-0.7665,2.214,-4.585,-1.986
1772932076298.2158,-0.2128,-0.5773,-0.7665,2.109,-4.585,-1.671
1772932076298.2158,-0.2111,-0.5804,-0.765,2.441,-4.777,-1.846
1772932076312.928,-0.2103,-0.581,-0.7654,2.196,-5.197,-1.873
1772932076312.928,-0.2111,-0.5807,-0.7645,2.126,-4.742,-1.593
1772932076327.9836,-0.2111,-0.5772,-0.7605,4.454,-4.69,-1.663
1772932076327.9836,-0.2104,-0.5805,-0.7637,2.188,-4.699,-1.619
1772932076327.9836,-0.2086,-0.5807,-0.764,2.406,-4.856,-1.505
1772932076327.9836,-0.2075,-0.5765,-0.7646,2.555,-4.848,-1.566
1772932076327.9836,-0.2096,-0.5766,-0.7625,2.546,-4.611,-1.452
1772932076343.08,-0.2078,-0.5755,-0.7622,2.66,-4.751,-1.811
1772932076343.08,-0.2083,-0.5738,-0.7635,2.52,-4.567,-1.636
1772932076343.08,-0.2073,-0.5741,-0.7653,2.476,-4.41,-1.907
1772932076343.08,-0.2115,-0.576,-0.7678,2.354,-4.532,-1.96
1772932076359.595,-0.2126,-0.5722,-0.768,2.319,-4.567,-1.986
1772932076359.595,-0.2159,-0.5738,-0.7702,2.083,-4.559,-1.855
1772932076359.595,-0.2158,-0.575,-0.7693,1.995,-5.04,-1.934
1772932076359.595,-0.2182,-0.5772,-0.7701,1.776,-4.865,-1.829
1772932076374.7217,-0.2192,-0.5764,-0.7706,1.951,-5.434,-1.811
1772932076374.7217,-0.22,-0.5808,-0.7696,2.17,-5.364,-1.855
1772932076374.7217,-0.2205,-0.5794,-0.7682,1.706,-5.215,-1.654
1772932076389.8774,-0.2206,-0.5797,-0.7681,1.864,-5.18,-1.4
1772932076389.8774,-0.219,-0.5777,-0.7645,2.004,-5.268,-1.295
1772932076389.8774,-0.2162,-0.5754,-0.7643,4.471,-5.407,-1.496
1772932076389.8774,-0.2147,-0.5754,-0.7801,2.345,-5.442,-1.312
1772932076405.0178,-0.2109,-0.5752,-0.7659,2.572,-5.215,-1.383
1772932076405.0178,-0.2112,-0.5747,-0.7651,2.494,-5.381,-1.549
1772932076405.0178,-0.2122,-0.5732,-0.7684,2.345,-5.32,-1.47
1772932076405.0178,-0.2124,-0.5692,-0.768,2.24,-5.206,-1.479
1772932076405.0178,-0.2128,-0.567,-0.7677,2.354,-4.935,-1.374
1772932076420.1785,-0.2144,-0.5719,-0.7693,2.223,-5.18,-1.47
1772932076420.1785,-0.2145,-0.5774,-0.7683,2.511,-5.04,-1.627
1772932076420.1785,-0.212,-0.5775,-0.7655,2.625,-5.32,-1.522
1772932076420.1785,-0.211,-0.5775,-0.7652,2.599,-5.25,-1.417
1772932076436.0364,-0.2122,-0.5804,-0.7654,2.59,-5.407,-1.47
1772932076436.0364,-0.2133,-0.5808,-0.7653,2.389,-4.909,-1.566
1772932076436.0364,-0.2122,-0.5793,-0.767,2.424,-4.926,-1.199
1772932076451.9104,-0.2159,-0.5777,-0.7634,2.424,-4.62,-1.514
1772932076451.9104,-0.2147,-0.5794,-0.7632,2.415,-4.603,-1.4
1772932076451.9104,-0.2154,-0.5757,-0.7633,2.564,-4.41,-1.47
1772932076451.9104,-0.2137,-0.5743,-0.765,2.966,-4.559,-1.671
1772932076467.8542,-0.2118,-0.573,-0.7643,2.651,-4.926,-1.505
1772932076467.8542,-0.218,-0.5708,-0.7674,2.397,-4.62,-1.584
1772932076467.8542,-0.216,-0.5725,-0.7648,2.257,-4.585,-1.251
1772932076467.8542,-0.2161,-0.5725,-0.7684,2.118,-4.611,-1.067
1772932076483.143,-0.2189,-0.5705,-0.7687,2.144,-4.935,-0.98
1772932076483.143,-0.2163,-0.5719,-0.7699,1.82,-4.821,-0.823
1772932076483.143,-0.2167,-0.5713,-0.769,1.531,-4.839,-1.024
1772932076483.143,-0.2153,-0.5695,-0.7708,1.837,-5.145,-1.339
1772932076498.8062,-0.215,-0.5699,-0.7702,1.715,-5.407,-1.146
1772932076498.8062,-0.2135,-0.5705,-0.767,1.907,-5.513,-1.391
1772932076498.8062,-0.2099,-0.5743,-0.7671,1.768,-5.416,-1.365
1772932076498.8062,-0.2092,-0.5716,-0.7677,1.907,-5.346,-1.47
1772932076498.8062,-0.2096,-0.5741,-0.7695,1.978,-5.652,-1.759
1772932076513.965,-0.2083,-0.576,-0.7646,1.978,-5.6,-1.864
1772932076513.965,-0.2082,-0.5768,-0.766,2.135,-5.688,-1.899
1772932076513.965,-0.2082,-0.5744,-0.7659,1.68,-5.372,-1.759
1772932076513.965,-0.2104,-0.5757,-0.7657,2.135,-5.617,-2.161
1772932076528.9023,-0.2097,-0.5732,-0.7702,1.741,-5.399,-1.873
1772932076528.9023,-0.2105,-0.5743,-0.7709,1.706,-5.154,-2.135
1772932076528.9023,-0.2153,-0.5732,-0.7706,1.706,-5.425,-2.223
1772932076544.1719,-0.2122,-0.5724,-0.7674,1.627,-5.259,-2.24
1772932076544.1719,-0.2151,-0.5734,-0.7693,1.593,-5.478,-2.17
1772932076544.1719,-0.2164,-0.5735,-0.7687,1.636,-5.504,-1.881
1772932076544.1719,-0.2126,-0.5738,-0.7655,1.461,-5.259,-1.698
1772932076559.7239,-0.2141,-0.5724,-0.7662,1.636,-5.372,-1.383
1772932076559.7239,-0.2111,-0.5734,-0.7671,1.47,-5.136,-1.286
1772932076559.7239,-0.2096,-0.5717,-0.768,1.269,-4.979,-1.067
1772932076559.7239,-0.2133,-0.5757,-0.7677,1.295,-5.154,-1.365
1772932076575.308,-0.2128,-0.572,-0.766,1.549,-5.241,-1.111
1772932076575.308,-0.2153,-0.5741,-0.7695,1.54,-5.18,-0.936
1772932076575.308,-0.2164,-0.5719,-0.7667,1.531,-4.594,-1.4
1772932076575.308,-0.2167,-0.5696,-0.7693,1.61,-5.058,-1.531
1772932076575.308,-0.2103,-0.5718,-0.7691,1.654,-4.786,-1.61
1772932076591.1814,-0.2098,-0.5722,-0.7657,1.558,-4.987,-1.732
1772932076591.1814,-0.2134,-0.5694,-0.7707,1.645,-5.259,-2.039
1772932076606.9094,-0.2142,-0.5714,-0.7666,1.706,-5.145,-2.039
1772932076606.9094,-0.2125,-0.5749,-0.7662,1.488,-5.171,-2.1
1772932076606.9094,-0.2109,-0.5705,-0.769,1.391,-5.154,-1.82
1772932076606.9094,-0.2114,-0.5763,-0.7729,1.619,-5.364,-1.776
1772932076606.9094,-0.2144,-0.5724,-0.7707,1.47,-5.539,-1.802
1772932076621.568,-0.2111,-0.5732,-0.7698,1.33,-5.434,-1.864
1772932076621.568,-0.2128,-0.5739,-0.7671,1.094,-5.381,-1.995
1772932076621.568,-0.2123,-0.5736,-0.7704,1.339,-5.504,-2.144
1772932076621.568,-0.2095,-0.5747,-0.7697,0.954,-5.574,-2.083
1772932076636.6243,-0.2123,-0.5721,-0.7685,0.945,-5.53,-1.986
1772932076636.6243,-0.2082,-0.5713,-0.7684,1.304,-5.644,-1.732
1772932076636.6243,-0.2085,-0.5723,-0.7681,1.663,-5.582,-1.942
1772932076636.6243,-0.2083,-0.5739,-0.7672,1.671,-5.705,-1.785
1772932076652.0542,-0.2097,-0.5722,-0.7651,1.776,-5.758,-2.047
1772932076652.0542,-0.2092,-0.575,-0.7668,1.864,-5.705,-1.776
1772932076652.0542,-0.2104,-0.5725,-0.7669,1.873,-5.591,-1.654
1772932076668.1453,-0.2107,-0.5724,-0.7687,1.89,-5.338,-1.593
1772932076668.1453,-0.2137,-0.5743,-0.7707,1.794,-5.521,-1.549
1772932076668.1453,-0.2125,-0.5695,-0.7675,1.732,-5.145,-1.461
1772932076668.1453,-0.2105,-0.5749,-0.7686,1.811,-5.084,-1.811
1772932076683.8494,-0.2096,-0.5749,-0.7738,1.522,-4.926,-1.671
1772932076683.8494,-0.2123,-0.5712,-0.7683,1.558,-5.022,-1.304
1772932076683.8494,-0.2102,-0.5741,-0.7668,1.339,-5.162,-1.304
1772932076683.8494,-0.2094,-0.5742,-0.7669,1.19,-5.101,-1.286
1772932076683.8494,-0.2082,-0.5721,-0.7669,1.269,-5.145,-1.47
1772932076699.4587,-0.2054,-0.5725,-0.7687,1.146,-5.197,-1.776
1772932076699.4587,-0.2125,-0.5722,-0.7683,1.269,-5.022,-1.978
1772932076699.4587,-0.2135,-0.5696,-0.7683,0.647,-4.541,-1.671
1772932076699.4587,-0.2149,-0.566,-0.7699,0.796,-4.751,-1.663
1772932076714.1743,-0.2111,-0.5748,-0.7685,1.155,-4.725,-2.502
1772932076714.1743,-0.2057,-0.57,-0.777,0.735,-4.454,-1.837
1772932076714.1743,-0.2107,-0.5672,-0.7724,0.542,-5.014,-1.986
1772932076714.1743,-0.2125,-0.5665,-0.7688,0.735,-5.25,-1.864
1772932076729.3596,-0.2153,-0.5665,-0.7729,1.05,-5.381,-2.214
1772932076729.3596,-0.2095,-0.5694,-0.7731,1.374,-5.548,-2.196
1772932076729.3596,-0.2109,-0.567,-0.7709,1.383,-5.889,-1.768
1772932076745.3618,-0.2112,-0.5696,-0.7732,1.627,-5.644,-2.257
1772932076745.3618,-0.2096,-0.5719,-0.7721,1.969,-5.81,-0.061
1772932076745.3618,-0.2122,-0.5715,-0.7739,1.549,-5.696,-1.934
1772932076745.3618,-0.2087,-0.5744,-0.7706,1.671,-5.836,-1.925
1772932076760.8726,-0.2092,-0.5719,-0.7729,1.68,-5.854,-2.013
1772932076760.8726,-0.2107,-0.5716,-0.7723,1.4,-5.836,-2.214
1772932076760.8726,-0.2102,-0.5699,-0.7698,1.225,-5.442,-1.969
1772932076760.8726,-0.2115,-0.5716,-0.7741,1.173,-5.644,-4.13
1772932076760.8726,-0.213,-0.5713,-0.7716,1.015,-5.95,-2.1
1772932076776.025,-0.2134,-0.5697,-0.7723,0.752,-5.784,-1.846
1772932076776.025,-0.2115,-0.5688,-0.7687,0.604,-5.758,-1.802
1772932076776.025,-0.2126,-0.5701,-0.7693,0.674,-5.871,-1.698
1772932076776.025,-0.2155,-0.571,-0.7668,0.481,-5.714,-1.627
1772932076792.1296,-0.215,-0.5722,-0.7671,0.394,-5.617,-1.522
1772932076792.1296,-0.2134,-0.5675,-0.7669,0.481,-5.915,-1.295
1772932076792.1296,-0.2108,-0.5685,-0.766,0.525,-5.565,-1.304
1772932076792.1296,-0.2103,-0.5678,-0.7673,0.884,-5.469,-1.391
1772932076807.8215,-0.2117,-0.5685,-0.7662,1.181,-5.442,-1.365
1772932076807.8215,-0.2072,-0.5698,-0.7682,1.181,-5.338,-1.4
1772932076807.8215,-0.2091,-0.5669,-0.7682,1.339,-5.705,-1.452
1772932076823.3845,-0.2162,-0.5621,-0.7662,1.304,-5.346,-1.829
1772932076823.3845,-0.2092,-0.5629,-0.7746,1.488,-5.005,-1.995
1772932076823.3845,-0.2107,-0.5597,-0.7726,1.558,-5.407,-2.152
1772932076823.3845,-0.2165,-0.5627,-0.7753,1.768,-5.346,-1.855
1772932076839.0374,-0.2159,-0.5633,-0.773,2.1,-5.005,-1.837
1772932076839.0374,-0.2173,-0.5634,-0.7758,1.986,-5.338,-1.855
1772932076839.0374,-0.2163,-0.5664,-0.778,1.986,-5.119,-1.68
1772932076839.0374,-0.2122,-0.5677,-0.7812,1.881,-5.268,-1.671
1772932076855.142,-0.2132,-0.5697,-0.7745,1.627,-5.933,-1.934
1772932076855.142,-0.2109,-0.5758,-0.7776,0.586,-6.3,-2.301
1772932076855.142,-0.2079,-0.5798,-0.7743,-0.009,-6.886,-2.415
1772932076855.142,-0.2081,-0.5741,-0.7677,-0.499,-7.28,-2.835
1772932076855.142,-0.2094,-0.5727,-0.7661,-0.858,-7.735,-3.054
1772932076872.0999,-0.2106,-0.5724,-0.7635,-0.28,-7.849,-3.071
1772932076872.0999,-0.2151,-0.5722,-0.7637,0.061,-7.639,-2.59
1772932076872.0999,-0.2183,-0.5625,-0.7654,1.024,-7.088,-2.38
1772932076872.0999,-0.2234,-0.5608,-0.7659,2.196,-5.53,-2.336
1772932076887.8533,-0.2174,-0.5601,-0.7809,3.203,-5.232,-1.549
1772932076887.8533,-0.2148,-0.5613,-0.7805,3.535,-4.821,-0.77
1772932076887.8533,-0.2126,-0.5632,-0.7837,3.272,-4.48,-0.289
1772932076887.8533,-0.205,-0.5636,-0.7851,2.748,-4.112,-0.122
1772932076903.4082,-0.2001,-0.5595,-0.7832,1.934,-4.174,0.0
1772932076903.4082,-0.1976,-0.5622,-0.7861,0.901,-4.384,-0.429
1772932076903.4082,-0.197,-0.5611,-0.7817,0.245,-4.673,-0.823
1772932076903.4082,-0.2026,-0.5661,-0.7799,0.105,-5.022,-1.304
1772932076918.8987,-0.2051,-0.575,-0.7721,-0.297,-5.303,-1.417
1772932076918.8987,-0.2026,-0.5789,-0.7669,-1.05,-5.197,-1.225
1772932076918.8987,-0.2089,-0.577,-0.7664,-1.26,-5.084,-1.785
1772932076934.6614,-0.206,-0.5772,-0.7676,-1.531,-5.425,-2.126
1772932076934.6614,-0.2088,-0.5727,-0.7596,-1.601,-5.827,-2.03
1772932076934.6614,-0.2173,-0.5694,-0.7604,-1.584,-6.501,-1.636
1772932076934.6614,-0.2181,-0.568,-0.7583,-1.4,-6.571,-1.907
1772932076951.2207,-0.2241,-0.5596,-0.758,-0.682,-6.466,-2.013
1772932076951.2207,-0.2232,-0.5513,-0.7623,0.026,-6.291,-2.739
1772932076951.2207,-0.2191,-0.5514,-0.7785,0.7,-6.353,-2.94
1772932076951.2207,-0.2175,-0.5496,-0.7788,1.103,-6.843,-3.062
1772932076951.2207,-0.2187,-0.5479,-0.7855,1.199,-7.332,-3.237
1772932076966.7585,-0.2189,-0.5555,-0.7888,1.05,-7.665,-3.421
1772932076966.7585,-0.2178,-0.5601,-0.811,0.718,-8.295,-3.719
1772932076966.7585,-0.2175,-0.5696,-0.7936,0.455,-8.68,-3.491
1772932076966.7585,-0.2111,-0.573,-0.793,-0.263,-8.505,-3.596
1772932076982.176,-0.2107,-0.5741,-0.7938,-0.315,-9.293,-3.587
1772932076982.176,-0.2081,-0.5771,-0.7884,-0.079,-9.24,-2.993
1772932076982.176,-0.2031,-0.5762,-0.7893,-0.481,-9.039,-2.651
1772932076982.176,-0.2012,-0.5739,-0.786,-0.464,-9.432,-2.424
1772932076998.1716,-0.2026,-0.5715,-0.7831,-0.534,-8.908,-2.205
1772932076998.1716,-0.2033,-0.5711,-0.7818,-0.376,-8.584,-1.899
1772932076998.1716,-0.2047,-0.5673,-0.7801,0.096,-8.225,-1.942
1772932076998.1716,-0.2081,-0.5646,-0.7748,0.49,-7.84,-2.118
1772932077013.783,-0.2112,-0.5647,-0.77,0.927,-7.577,-2.135
1772932077013.783,-0.208,-0.5658,-0.7649,1.452,-7.376,-2.319
1772932077013.783,-0.2055,-0.5658,-0.7635,1.654,-6.449,-2.223
1772932077029.2869,-0.2042,-0.5685,-0.7601,1.829,-6.037,-2.152
1772932077029.2869,-0.2088,-0.5656,-0.7601,1.82,-5.88,-2.004
1772932077029.2869,-0.2128,-0.5618,-0.7594,1.68,-5.285,-1.768
1772932077029.2869,-0.2145,-0.5588,-0.7627,1.82,-5.565,-1.82
1772932077045.4023,-0.2188,-0.5556,-0.7634,1.54,-5.329,-1.75
1772932077045.4023,-0.2184,-0.5539,-0.7662,1.706,-5.609,-1.768
1772932077045.4023,-0.2232,-0.5503,-0.7675,1.461,-6.037,-2.047
1772932077045.4023,-0.2234,-0.5505,-0.769,1.374,-6.169,-2.205
1772932077045.4023,-0.2219,-0.5514,-0.7718,1.505,-6.256,-2.118
1772932077061.0432,-0.2189,-0.5505,-0.7714,1.304,-5.88,-2.249
1772932077061.0432,-0.2203,-0.5515,-0.7744,1.435,-6.195,-2.214
1772932077061.0432,-0.2148,-0.5558,-0.7742,1.199,-6.204,-1.925
1772932077061.0432,-0.213,-0.5558,-0.7738,1.173,-6.169,-1.768
1772932077076.1938,-0.2089,-0.5578,-0.7741,1.067,-6.256,-1.811
1772932077076.1938,-0.2056,-0.5621,-0.7716,0.84,-6.274,-1.785
1772932077076.1938,-0.2084,-0.5594,-0.772,1.304,-6.414,-1.698
1772932077076.1938,-0.209,-0.5597,-0.774,0.971,-6.247,-1.881
1772932077091.8848,-0.2059,-0.5602,-0.7718,0.998,-6.029,-1.925
1772932077091.8848,-0.2095,-0.5586,-0.7726,1.234,-6.02,-2.074
1772932077091.8848,-0.2135,-0.5583,-0.7724,1.522,-6.37,-1.899
1772932077091.8848,-0.2123,-0.5587,-0.7748,1.627,-6.064,-1.873
1772932077107.0532,-0.2111,-0.5592,-0.7733,1.724,-6.099,-2.397
1772932077107.0532,-0.2107,-0.56,-0.7763,1.829,-6.125,-2.196
1772932077107.0532,-0.2164,-0.5477,-0.7733,1.942,-6.317,-2.485
1772932077122.2883,-0.2097,-0.571,-0.774,2.109,-5.058,-3.456
1772932077122.2883,-0.2018,-0.5656,-0.778,1.794,-5.714,-2.572
1772932077122.2883,-0.2092,-0.5632,-0.7768,1.925,-5.915,-1.951
1772932077122.2883,-0.2155,-0.5603,-0.7802,2.039,-6.116,-1.785
1772932077122.2883,-0.2169,-0.5651,-0.7778,1.96,-6.011,-1.759
1772932077138.0159,-0.2197,-0.5644,-0.7819,1.995,-5.976,-1.715
1772932077138.0159,-0.22,-0.5623,-0.7786,1.881,-5.906,-1.505
1772932077138.0159,-0.2203,-0.5636,-0.7812,2.161,-5.827,-1.54
1772932077138.0159,-0.2227,-0.563,-0.7779,2.17,-5.591,-1.383
1772932077153.6196,-0.2183,-0.5635,-0.7776,2.467,-5.679,-1.251
1772932077153.6196,-0.2147,-0.5599,-0.7797,2.625,-5.442,-1.146
1772932077153.6196,-0.2106,-0.5596,-0.7793,2.564,-5.416,-0.954
1772932077153.6196,-0.2097,-0.5587,-0.7803,2.502,-5.303,-1.173
1772932077168.7537,-0.2084,-0.5617,-0.7804,2.45,-5.46,-1.269
1772932077168.7537,-0.2097,-0.5649,-0.778,2.135,-5.075,-1.137
1772932077168.7537,-0.2087,-0.5632,-0.7791,1.811,-5.32,-1.558
1772932077183.851,-0.2096,-0.5681,-0.7743,1.164,-5.171,-1.584
1772932077183.851,-0.2122,-0.5655,-0.7735,0.779,-5.294,-1.584
1772932077183.851,-0.2133,-0.5638,-0.7748,0.586,-5.022,-1.54
1772932077183.851,-0.2172,-0.5622,-0.7767,0.927,-5.11,-1.689
1772932077198.8225,-0.2219,-0.5627,-0.7706,1.199,-5.241,-1.934
1772932077198.8225,-0.2161,-0.5651,-0.7786,1.698,-4.935,-1.663
1772932077198.8225,-0.2144,-0.5601,-0.7757,1.549,-5.285,-1.173
1772932077198.8225,-0.2142,-0.5543,-0.779,1.627,-5.154,-0.998
1772932077198.8225,-0.2151,-0.5539,-0.7788,1.75,-5.058,-1.19
1772932077214.8115,-0.2126,-0.5526,-0.7796,1.715,-5.372,-1.514
1772932077214.8115,-0.2084,-0.5541,-0.7802,1.558,-5.268,-1.68
1772932077214.8115,-0.2077,-0.5553,-0.7819,1.111,-5.355,-1.61
1772932077214.8115,-0.2104,-0.5573,-0.7826,0.954,-5.6,-1.732
1772932077229.5337,-0.2071,-0.5602,-0.7826,1.304,-6.011,-2.013
1772932077229.5337,-0.209,-0.5586,-0.7829,1.181,-6.256,-1.96
1772932077229.5337,-0.2104,-0.5604,-0.7817,1.199,-6.151,-1.864
1772932077245.3118,-0.2126,-0.558,-0.7821,1.426,-6.431,-1.855
1772932077245.3118,-0.2077,-0.5576,-0.7789,1.601,-6.396,-1.724
1772932077245.3118,-0.2107,-0.5588,-0.7829,1.768,-6.116,-1.846
1772932077245.3118,-0.2106,-0.5571,-0.7773,1.829,-6.134,-1.531
1772932077260.935,-0.2117,-0.5608,-0.7764,1.934,-6.09,-1.339
1772932077260.935,-0.2107,-0.5584,-0.7821,1.627,-5.582,-1.234
1772932077260.935,-0.207,-0.5577,-0.7762,1.619,-5.793,-1.173
1772932077260.935,-0.2056,-0.556,-0.7745,1.732,-5.81,-1.015
1772932077276.2554,-0.2056,-0.5576,-0.7731,1.645,-5.67,-1.339
1772932077276.2554,-0.2038,-0.5591,-0.7755,1.802,-5.679,-1.374
1772932077276.2554,-0.2083,-0.5566,-0.776,1.951,-5.635,-1.522
1772932077276.2554,-0.2089,-0.5571,-0.776,1.654,-5.338,-1.558
1772932077292.383,-0.2178,-0.5564,-0.7699,2.03,-5.46,-1.995
1772932077292.383,-0.2119,-0.5597,-0.7825,1.68,-4.515,-2.223
1772932077292.383,-0.2103,-0.5572,-0.7784,1.619,-5.338,-1.759
1772932077292.383,-0.2158,-0.5556,-0.7792,1.645,-5.565,-1.321
1772932077292.383,-0.2142,-0.5555,-0.7804,1.409,-5.889,-1.103
1772932077308.1753,-0.2149,-0.5567,-0.7737,1.627,-5.933,-1.085
1772932077308.1753,-0.2157,-0.5571,-0.776,1.54,-5.985,-1.391
1772932077308.1753,-0.2134,-0.5564,-0.7782,1.575,-6.134,-1.444
1772932077324.1128,-0.2143,-0.5541,-0.7796,1.566,-6.282,-1.829
1772932077324.1128,-0.2134,-0.5563,-0.7779,1.488,-6.405,-1.925
1772932077324.1128,-0.214,-0.5588,-0.7746,1.426,-6.457,-2.013
1772932077324.1128,-0.2103,-0.5563,-0.7781,1.488,-6.545,-1.96
1772932077340.0933,-0.214,-0.56,-0.7754,1.54,-6.711,-1.794
1772932077340.0933,-0.2148,-0.5572,-0.7753,1.312,-6.624,-1.663
1772932077340.0933,-0.2141,-0.5603,-0.776,1.479,-6.711,-1.934
1772932077340.0933,-0.2126,-0.5593,-0.7774,1.426,-6.58,-1.645
1772932077355.7773,-0.2147,-0.5557,-0.7778,1.461,-6.527,-1.619
1772932077355.7773,-0.2157,-0.5572,-0.7815,1.391,-6.615,-1.461
1772932077355.7773,-0.2161,-0.5566,-0.7811,1.426,-6.265,-1.593
1772932077355.7773,-0.2146,-0.5559,-0.7842,1.461,-6.274,-1.505
1772932077371.5781,-0.2165,-0.5537,-0.7808,1.383,-6.536,-1.636
1772932077371.5781,-0.2144,-0.5552,-0.7814,1.479,-6.755,-1.54
1772932077371.5781,-0.2149,-0.5558,-0.7804,1.558,-6.659,-1.505
1772932077371.5781,-0.2161,-0.5567,-0.78,1.312,-6.449,-1.575
1772932077371.5781,-0.2137,-0.5561,-0.7795,1.19,-6.659,-1.978
1772932077386.7732,-0.2156,-0.5576,-0.7816,1.321,-6.484,-1.89
1772932077386.7732,-0.215,-0.5586,-0.7817,1.452,-6.519,-1.531
1772932077386.7732,-0.2139,-0.5582,-0.7803,1.452,-6.361,-1.619
1772932077386.7732,-0.2151,-0.5562,-0.781,1.645,-6.65,-1.505
1772932077402.0378,-0.2136,-0.556,-0.7822,1.627,-6.615,-1.689
1772932077402.0378,-0.2111,-0.5555,-0.7815,1.706,-6.247,-1.759
1772932077402.0378,-0.2092,-0.5536,-0.7801,1.566,-6.099,-1.689
1772932077417.7993,-0.2117,-0.5531,-0.7804,2.065,-6.396,-2.03
1772932077417.7993,-0.2158,-0.5542,-0.7807,1.864,-6.309,-1.89
1772932077417.7993,-0.2206,-0.5544,-0.7794,1.61,-6.449,-2.065
1772932077417.7993,-0.2211,-0.5577,-0.7776,1.461,-6.423,-1.741
1772932077433.13,-0.2311,-0.5439,-0.7764,1.558,-6.317,-1.732
1772932077433.13,-0.2172,-0.5611,-0.7778,1.689,-5.582,-2.756
1772932077433.13,-0.2159,-0.5557,-0.785,1.251,-5.609,-2.214
1772932077433.13,-0.2182,-0.5527,-0.7795,1.146,-6.344,-1.461
1772932077448.82,-0.2175,-0.5542,-0.7759,1.155,-6.816,-1.094
1772932077448.82,-0.2209,-0.5572,-0.776,1.356,-7.0,-1.549
1772932077448.82,-0.2187,-0.5591,-0.779,1.689,-6.65,-1.19
1772932077448.82,-0.2198,-0.5594,-0.7729,1.531,-6.737,-1.452
1772932077448.82,-0.2144,-0.5574,-0.7774,1.584,-6.554,-1.278
1772932077464.448,-0.2163,-0.5578,-0.7709,1.689,-6.851,-1.426
1772932077464.448,-0.2162,-0.5549,-0.7745,1.802,-6.764,-1.663
1772932077464.448,-0.2137,-0.5542,-0.7741,1.986,-6.668,-1.531
1772932077464.448,-0.215,-0.5525,-0.7734,2.03,-6.72,-1.54
1772932077480.2239,-0.2131,-0.5503,-0.7749,2.1,-6.379,-1.47
1772932077480.2239,-0.213,-0.548,-0.7748,2.17,-6.527,-1.575
1772932077480.2239,-0.2148,-0.5474,-0.7776,2.284,-6.466,-1.566
1772932077495.7751,-0.2117,-0.5523,-0.7774,2.336,-6.527,-2.021
1772932077495.7751,-0.2131,-0.5507,-0.7774,2.511,-6.099,-1.505
1772932077495.7751,-0.2124,-0.5501,-0.7773,2.441,-6.037,-1.663
1772932077495.7751,-0.215,-0.5525,-0.7796,2.336,-6.282,-2.004
1772932077511.841,-0.2164,-0.5488,-0.7788,2.31,-6.282,-2.188
1772932077511.841,-0.2159,-0.555,-0.7826,2.686,-6.37,-2.214
1772932077511.841,-0.217,-0.5592,-0.7806,2.319,-6.44,-2.205
1772932077511.841,-0.2179,-0.5576,-0.7837,2.144,-6.221,-2.196
1772932077527.7725,-0.2162,-0.5589,-0.7812,2.056,-6.169,-1.864
1772932077527.7725,-0.218,-0.556,-0.7838,2.056,-6.125,-1.671
1772932077527.7725,-0.2187,-0.5533,-0.7838,2.126,-6.37,-1.689
1772932077527.7725,-0.2181,-0.5538,-0.7831,2.047,-6.72,-1.627
1772932077543.0889,-0.2173,-0.5547,-0.7836,1.837,-6.291,-1.829
1772932077543.0889,-0.2133,-0.5533,-0.7792,1.514,-6.143,-1.951
1772932077543.0889,-0.2105,-0.5566,-0.7802,0.831,-5.854,-2.38
1772932077543.0889,-0.2173,-0.5492,-0.7815,1.094,-6.143,-2.607
1772932077543.0889,-0.2188,-0.5496,-0.7791,1.234,-6.143,-2.161
1772932077558.1365,-0.2154,-0.5505,-0.7797,1.461,-5.924,-1.96
1772932077558.1365,-0.2139,-0.55,-0.7796,2.013,-6.37,-1.873
1772932077558.1365,-0.2128,-0.5555,-0.7787,1.951,-6.274,-1.75
1772932077574.0981,-0.2119,-0.5555,-0.7808,2.065,-5.994,-1.654
1772932077574.0981,-0.2122,-0.5569,-0.7814,2.214,-6.134,-1.68
1772932077574.0981,-0.2103,-0.5578,-0.7791,2.336,-6.282,-1.837
1772932077574.0981,-0.2156,-0.5561,-0.7783,2.021,-5.976,-1.619
1772932077589.114,-0.2153,-0.5572,-0.7818,2.118,-6.037,-1.61
1772932077589.114,-0.2147,-0.5569,-0.7811,2.266,-6.143,-1.654
1772932077589.114,-0.2168,-0.5531,-0.7808,2.118,-6.344,-1.479
1772932077589.114,-0.2163,-0.5561,-0.7807,2.249,-6.291,-1.365
1772932077604.9172,-0.2157,-0.5517,-0.7798,2.109,-6.107,-1.654
1772932077604.9172,-0.2171,-0.5483,-0.7819,2.144,-5.968,-1.794
1772932077604.9172,-0.2169,-0.5499,-0.778,2.266,-6.099,-2.091
1772932077604.9172,-0.2233,-0.5436,-0.7785,2.223,-6.169,-2.301
1772932077620.1821,-0.2139,-0.5528,-0.7864,2.179,-5.084,-2.651
1772932077620.1821,-0.2144,-0.5512,-0.7812,2.24,-6.02,-2.231
1772932077620.1821,-0.2184,-0.5497,-0.7799,2.074,-5.994,-2.056
1772932077620.1821,-0.2191,-0.5502,-0.7781,2.047,-6.396,-1.837
1772932077620.1821,-0.2195,-0.5538,-0.7804,2.275,-6.291,-1.785
1772932077635.7058,-0.2198,-0.5546,-0.782,2.144,-6.326,-1.724
1772932077635.7058,-0.2139,-0.5525,-0.7786,2.371,-6.44,-1.619
1772932077650.8533,-0.2154,-0.5549,-0.7774,2.091,-6.484,-1.61
1772932077650.8533,-0.2162,-0.5516,-0.7784,2.319,-6.746,-1.558
1772932077650.8533,-0.217,-0.5504,-0.7776,2.292,-6.405,-1.706
1772932077650.8533,-0.2188,-0.5548,-0.7785,2.31,-6.388,-2.056
1772932077650.8533,-0.2154,-0.5525,-0.7783,2.345,-6.125,-1.768
1772932077666.1648,-0.2175,-0.5528,-0.7787,2.371,-6.37,-1.706
1772932077666.1648,-0.2161,-0.5502,-0.7811,2.459,-6.274,-1.837
1772932077666.1648,-0.214,-0.5519,-0.7806,2.599,-6.265,-1.864
1772932077666.1648,-0.2134,-0.553,-0.7804,2.424,-6.16,-1.969
1772932077681.957,-0.2125,-0.5509,-0.7785,2.459,-6.37,-1.986
1772932077681.957,-0.2143,-0.5491,-0.7829,2.643,-5.959,-2.013
1772932077681.957,-0.2158,-0.5489,-0.7843,2.678,-6.134,-2.083
1772932077681.957,-0.2152,-0.5505,-0.7815,2.389,-6.003,-2.214
1772932077697.1738,-0.2172,-0.5505,-0.7795,2.704,-6.011,-2.328
1772932077697.1738,-0.2097,-0.5526,-0.789,2.791,-5.933,-2.223
1772932077697.1738,-0.2147,-0.5493,-0.7848,2.634,-6.072,-2.056
1772932077712.7227,-0.214,-0.5511,-0.7856,2.354,-6.239,-2.065
1772932077712.7227,-0.2142,-0.5536,-0.7824,2.31,-6.256,-2.223
1772932077712.7227,-0.2147,-0.5539,-0.7826,2.188,-6.186,-2.039
1772932077712.7227,-0.2167,-0.5573,-0.7819,2.328,-6.492,-1.986
1772932077729.3472,-0.2171,-0.5581,-0.783,2.284,-6.361,-1.986
1772932077729.3472,-0.2189,-0.5563,-0.7832,2.021,-6.151,-1.89
1772932077729.3472,-0.2194,-0.552,-0.7806,2.179,-5.95,-1.759
1772932077729.3472,-0.2174,-0.5504,-0.7795,2.424,-6.072,-1.452
1772932077729.3472,-0.2147,-0.5535,-0.7815,2.397,-6.037,-1.452
1772932077745.5022,-0.2153,-0.553,-0.7778,2.433,-6.291,-1.601
1772932077745.5022,-0.2171,-0.552,-0.7812,2.249,-6.125,-1.514
1772932077745.5022,-0.2181,-0.5536,-0.7759,2.24,-5.513,-1.969
1772932077745.5022,-0.2154,-0.5555,-0.7841,2.135,-5.513,-1.689
1772932077761.1501,-0.2184,-0.5515,-0.7776,1.942,-5.976,-1.566
1772932077761.1501,-0.2206,-0.5486,-0.7796,1.899,-6.44,-1.409
1772932077761.1501,-0.2208,-0.5522,-0.7796,1.942,-6.274,-1.663
1772932077761.1501,-0.2194,-0.5498,-0.7803,1.873,-6.169,-1.426
1772932077777.0466,-0.2184,-0.55,-0.7781,1.951,-6.204,-1.505
1772932077777.0466,-0.2184,-0.551,-0.7796,2.109,-6.099,-2.021
1772932077777.0466,-0.2337,-0.5499,-0.7785,2.013,-6.3,-1.732
1772932077777.0466,-0.2187,-0.5518,-0.7781,2.135,-6.414,-1.776
1772932077792.2349,-0.2201,-0.5525,-0.7764,2.179,-6.361,-1.759
1772932077792.2349,-0.2186,-0.5519,-0.7782,2.284,-6.457,-2.065
1772932077792.2349,-0.2189,-0.5527,-0.7756,2.371,-6.046,-1.75
1772932077792.2349,-0.2193,-0.5508,-0.7785,2.756,-5.985,-1.566
1772932077792.2349,-0.2184,-0.5497,-0.7835,2.817,-5.644,-1.873
1772932077807.7976,-0.2208,-0.5473,-0.7832,3.22,-5.705,-1.881
1772932077807.7976,-0.2174,-0.5461,-0.7884,3.062,-5.548,-1.855
1772932077807.7976,-0.2161,-0.5491,-0.7865,2.931,-5.556,-1.768
1772932077823.0317,-0.2175,-0.5514,-0.7875,2.712,-5.635,-1.873
1772932077823.0317,-0.2164,-0.5574,-0.7849,1.776,-6.107,-2.607
1772932077823.0317,-0.2169,-0.561,-0.7802,1.225,-6.484,-2.879
1772932077823.0317,-0.2158,-0.5597,-0.7756,0.613,-7.201,-2.861
1772932077839.0923,-0.217,-0.5584,-0.7751,0.254,-7.577,-3.027
1772932077839.0923,-0.2206,-0.5566,-0.7716,0.656,-7.884,-2.888
1772932077839.0923,-0.2231,-0.5567,-0.7697,1.278,-7.691,-2.59
1772932077839.0923,-0.2236,-0.5538,-0.7687,2.03,-7.341,-2.135
1772932077854.639,-0.2251,-0.5476,-0.7747,2.748,-7.088,-1.986
1772932077854.639,-0.2279,-0.5392,-0.7779,3.736,-6.414,-1.47
1772932077854.639,-0.2258,-0.5411,-0.7835,4.445,-5.311,-1.05
1772932077854.639,-0.22,-0.5491,-0.7854,4.751,-4.585,-0.744
1772932077870.9438,-0.2113,-0.5525,-0.7834,4.366,-3.981,-0.175
1772932077870.9438,-0.2048,-0.5545,-0.7857,2.896,-4.287,0.052
1772932077870.9438,-0.2008,-0.5481,-0.7886,1.811,-4.436,-0.376
1772932077870.9438,-0.2014,-0.5415,-0.7913,1.496,-4.856,-0.726
1772932077870.9438,-0.2055,-0.5382,-0.7872,1.54,-4.848,-1.216
1772932077887.0312,-0.2141,-0.5493,-0.7823,1.47,-4.795,-1.671
1772932077887.0312,-0.216,-0.5597,-0.7809,1.496,-4.961,-1.82
1772932077887.0312,-0.2136,-0.5634,-0.7775,0.84,-5.311,-1.654
1772932077887.0312,-0.2169,-0.5593,-0.7772,-0.07,-5.793,-1.768
1772932077902.1924,-0.2198,-0.5567,-0.7713,-0.114,-6.029,-2.152
1772932077902.1924,-0.2236,-0.555,-0.7676,-0.184,-6.484,-2.004
1772932077902.1924,-0.2261,-0.5556,-0.7674,0.534,-6.685,-1.978
1772932077916.935,-0.2273,-0.5577,-0.7637,1.111,-6.808,-2.345
1772932077916.935,-0.232,-0.5526,-0.7659,1.33,-7.053,-2.126
1772932077916.935,-0.2323,-0.5444,-0.769,1.706,-6.501,-2.196
1772932077916.935,-0.2284,-0.5416,-0.7753,2.476,-7.079,-2.371
1772932077932.2295,-0.2347,-0.5411,-0.7806,3.176,-7.192,-2.599
1772932077932.2295,-0.2325,-0.5403,-0.7881,3.631,-7.298,-2.564
1772932077932.2295,-0.2285,-0.541,-0.7925,4.13,-7.332,-2.59
1772932077932.2295,-0.2245,-0.5467,-0.8,3.938,-7.315,-2.459
1772932077947.7705,-0.2178,-0.552,-0.8004,3.684,-7.639,-2.371
1772932077947.7705,-0.2123,-0.5578,-0.7999,3.482,-7.577,-2.686
1772932077947.7705,-0.2083,-0.5603,-0.7998,2.765,-7.656,-2.415
1772932077947.7705,-0.2056,-0.5598,-0.7998,2.433,-7.481,-2.581
1772932077963.7703,-0.2045,-0.5612,-0.7967,2.013,-7.42,-2.572
1772932077963.7703,-0.2056,-0.5605,-0.7968,1.776,-7.228,-2.485
1772932077963.7703,-0.2116,-0.5575,-0.7966,1.802,-7.569,-2.362
1772932077979.2095,-0.2117,-0.555,-0.7944,1.864,-7.061,-2.284
1772932077979.2095,-0.2144,-0.5528,-0.7884,2.083,-7.298,-2.214
1772932077979.2095,-0.2144,-0.5518,-0.7852,1.881,-7.088,-2.047
1772932077979.2095,-0.2189,-0.5503,-0.7835,2.03,-6.965,-2.188
1772932077979.2095,-0.2182,-0.5506,-0.7807,2.38,-6.772,-2.223
1772932077994.4006,-0.2168,-0.5486,-0.7764,2.678,-6.843,-2.1
1772932077994.4006,-0.215,-0.5525,-0.7745,2.651,-6.291,-2.354
1772932077994.4006,-0.2176,-0.5522,-0.7707,2.695,-6.072,-2.179
1772932077994.4006,-0.2151,-0.5499,-0.7695,2.511,-5.862,-2.152
1772932078009.9065,-0.2177,-0.5506,-0.7717,2.275,-5.652,-1.873
1772932078009.9065,-0.2205,-0.5466,-0.7721,2.135,-5.574,-1.89
1772932078009.9065,-0.2236,-0.5469,-0.7707,2.074,-5.582,-2.118
1772932078009.9065,-0.2241,-0.5465,-0.7741,1.916,-5.303,-1.636
1772932078025.1519,-0.2236,-0.5478,-0.7743,2.004,-5.469,-1.706
1772932078025.1519,-0.2235,-0.5455,-0.7748,1.907,-5.661,-1.715
1772932078025.1519,-0.2242,-0.5439,-0.7801,1.995,-5.723,-1.584
1772932078025.1519,-0.2228,-0.5424,-0.7813,1.837,-5.714,-1.715
1772932078041.101,-0.2208,-0.5414,-0.7802,1.995,-5.74,-1.321
1772932078041.101,-0.2198,-0.5408,-0.7803,2.161,-5.845,-1.496
1772932078041.101,-0.2203,-0.5422,-0.779,2.118,-5.731,-1.365
1772932078056.8638,-0.2173,-0.5431,-0.7738,1.978,-5.959,-1.68
1772932078056.8638,-0.2131,-0.5391,-0.777,2.266,-6.02,-1.645
1772932078056.8638,-0.2133,-0.5396,-0.7766,2.564,-5.338,-1.496
1772932078056.8638,-0.2137,-0.5434,-0.7775,2.616,-5.197,-1.435
1772932078071.864,-0.2131,-0.5453,-0.7757,2.581,-4.839,-1.444
1772932078071.864,-0.2145,-0.5435,-0.7795,2.625,-4.725,-1.461
1772932078071.864,-0.2135,-0.5456,-0.7808,2.572,-4.62,-1.461
1772932078071.864,-0.216,-0.5458,-0.7813,2.529,-4.646,-1.566
1772932078071.864,-0.2195,-0.5463,-0.7839,2.362,-4.41,-1.645
1772932078087.8525,-0.2222,-0.5475,-0.7831,2.179,-4.532,-1.907
1772932078087.8525,-0.2262,-0.5524,-0.7865,2.494,-4.944,-1.899
1772932078087.8525,-0.2324,-0.556,-0.7729,2.669,-4.27,-3.229
1772932078087.8525,-0.2159,-0.5609,-0.7945,2.546,-3.789,-2.835
1772932078103.4675,-0.22,-0.5528,-0.7847,2.021,-4.62,-2.257
1772932078103.4675,-0.2241,-0.5526,-0.7841,1.978,-5.425,-2.021
1772932078103.4675,-0.2252,-0.553,-0.7795,2.188,-5.845,-1.768
1772932078103.4675,-0.2255,-0.5555,-0.7831,2.45,-5.582,-1.864
1772932078118.9465,-0.2271,-0.555,-0.7831,2.984,-5.338,-1.829
1772932078118.9465,-0.2234,-0.5553,-0.786,3.325,-5.197,-1.601
1772932078118.9465,-0.2207,-0.5567,-0.7826,3.071,-5.014,-1.531
1772932078134.0647,-0.2211,-0.5544,-0.7847,2.958,-5.066,-1.199
1772932078134.0647,-0.2182,-0.5516,-0.7859,3.062,-4.646,-1.094
1772932078134.0647,-0.2153,-0.5533,-0.7885,3.115,-4.725,-1.137
1772932078134.0647,-0.2187,-0.5553,-0.7847,2.651,-4.55,-1.488
1772932078149.8872,-0.2172,-0.5561,-0.7867,2.161,-4.541,-1.304
1772932078149.8872,-0.2175,-0.5595,-0.7863,1.724,-4.366,-1.164
1772932078149.8872,-0.2181,-0.5581,-0.7838,1.111,-4.725,-1.304
1772932078149.8872,-0.2215,-0.5544,-0.7781,0.787,-4.961,-1.199
1772932078149.8872,-0.2231,-0.5531,-0.7797,0.858,-4.996,-1.391
1772932078165.0427,-0.2237,-0.5508,-0.7771,1.278,-5.154,-1.452
1772932078165.0427,-0.2253,-0.5496,-0.779,1.619,-5.171,-1.242
1772932078165.0427,-0.2248,-0.5465,-0.7768,1.969,-5.075,-1.347
1772932078165.0427,-0.2229,-0.5492,-0.7775,2.397,-5.189,-1.234
1772932078181.2288,-0.2186,-0.545,-0.7795,2.476,-4.707,-1.242
1772932078181.2288,-0.2178,-0.5436,-0.7819,2.704,-5.022,-1.208
1772932078181.2288,-0.2186,-0.5392,-0.7821,2.765,-5.11,-1.278
1772932078181.2288,-0.2165,-0.5419,-0.7818,2.625,-4.979,-1.426
1772932078197.1284,-0.214,-0.5413,-0.783,2.607,-5.224,-1.522
1772932078197.1284,-0.2123,-0.5446,-0.7857,2.328,-5.197,-1.671
1772932078197.1284,-0.2131,-0.5449,-0.7827,2.301,-5.128,-1.75
1772932078212.9238,-0.2123,-0.5461,-0.7824,1.978,-5.6,-1.724
1772932078212.9238,-0.2109,-0.5485,-0.782,2.529,-5.582,-1.593
1772932078212.9238,-0.2123,-0.5459,-0.78,2.564,-5.425,-1.435
1772932078212.9238,-0.2144,-0.5482,-0.7809,2.861,-5.6,-1.785
1772932078229.4468,-0.2146,-0.5492,-0.7819,3.194,-5.486,-1.61
1772932078229.4468,-0.2156,-0.545,-0.7823,3.351,-5.294,-1.488
1772932078229.4468,-0.2166,-0.5466,-0.7823,3.491,-5.364,-1.619
1772932078229.4468,-0.2181,-0.5484,-0.7815,3.465,-5.521,-1.706
1772932078229.4468,-0.2208,-0.5459,-0.7812,3.57,-5.031,-1.61
1772932078244.4358,-0.2179,-0.5462,-0.7791,3.71,-4.83,-1.732
1772932078244.4358,-0.2181,-0.5499,-0.7805,3.728,-5.11,-1.531
1772932078244.4358,-0.2192,-0.5505,-0.7807,3.64,-5.136,-1.575
1772932078244.4358,-0.2172,-0.5518,-0.7798,3.684,-4.996,-1.549
1772932078259.858,-0.2186,-0.5515,-0.7817,3.675,-5.031,-1.627
1772932078259.858,-0.2186,-0.5516,-0.7834,3.605,-4.979,-1.575
1772932078259.858,-0.2191,-0.553,-0.7867,3.386,-4.839,-1.654
1772932078259.858,-0.2174,-0.5519,-0.7855,3.159,-5.075,-1.724
1772932078275.421,-0.221,-0.5535,-0.7865,3.176,-5.162,-1.304
1772932078275.421,-0.2197,-0.5503,-0.7889,2.853,-5.189,-1.321
1772932078275.421,-0.2189,-0.5522,-0.7857,2.888,-5.154,-1.531
1772932078275.421,-0.2206,-0.5494,-0.7882,2.704,-5.425,-1.444
1772932078291.883,-0.217,-0.5474,-0.7874,2.949,-5.25,-1.531
1772932078291.883,-0.2163,-0.5505,-0.7857,2.572,-5.53,-1.689
1772932078291.883,-0.2173,-0.5503,-0.7857,2.275,-5.609,-1.75
1772932078291.883,-0.2179,-0.549,-0.7812,2.371,-5.416,-1.61
1772932078291.883,-0.2194,-0.5462,-0.7818,2.511,-5.626,-1.855
1772932078307.8533,-0.2171,-0.5467,-0.7842,2.275,-5.889,-1.802
1772932078307.8533,-0.2186,-0.5489,-0.7824,2.546,-5.941,-1.986
1772932078322.5322,-0.2189,-0.5474,-0.7852,2.59,-6.046,-2.118
1772932078322.5322,-0.2186,-0.5506,-0.7831,2.354,-6.134,-1.75
1772932078322.5322,-0.218,-0.55,-0.7795,2.223,-5.889,-1.942
1772932078322.5322,-0.2182,-0.5508,-0.781,2.301,-6.291,-2.021
1772932078322.5322,-0.2174,-0.5496,-0.7793,1.96,-6.16,-2.1
1772932078338.5725,-0.218,-0.551,-0.7819,2.196,-6.169,-1.89
1772932078338.5725,-0.2172,-0.5484,-0.7813,2.502,-6.317,-1.907
1772932078338.5725,-0.2239,-0.5489,-0.7832,2.572,-6.247,-1.995
1772932078338.5725,-0.2219,-0.5511,-0.7836,2.721,-6.221,-2.249
1772932078353.6726,-0.2203,-0.5499,-0.7835,2.774,-5.994,-1.873
1772932078353.6726,-0.2211,-0.5483,-0.7854,2.66,-6.23,-1.82
1772932078353.6726,-0.221,-0.547,-0.7857,2.888,-5.933,-1.942
1772932078353.6726,-0.2195,-0.5502,-0.7845,2.826,-6.09,-1.942
1772932078368.8054,-0.2202,-0.5468,-0.7865,3.062,-5.845,-2.065
1772932078368.8054,-0.22,-0.5489,-0.7831,3.045,-5.775,-2.004
1772932078368.8054,-0.2186,-0.5468,-0.7873,2.712,-5.88,-1.829
1772932078383.8765,-0.2204,-0.5464,-0.7824,2.433,-5.364,-1.768
1772932078383.8765,-0.2202,-0.5455,-0.783,2.66,-5.425,-1.549
1772932078383.8765,-0.2206,-0.5483,-0.7834,2.494,-5.548,-1.417
1772932078383.8765,-0.2205,-0.5444,-0.7846,2.783,-5.539,-1.321
1772932078399.6267,-0.2201,-0.5458,-0.7839,2.765,-5.635,-1.566
1772932078399.6267,-0.221,-0.5456,-0.7828,2.931,-5.644,-1.759
1772932078399.6267,-0.2191,-0.5465,-0.7852,2.861,-5.88,-1.645
1772932078399.6267,-0.2209,-0.5479,-0.7824,2.844,-5.617,-1.645
1772932078399.6267,-0.2219,-0.5492,-0.7832,2.826,-5.469,-1.619
1772932078414.7788,-0.222,-0.5506,-0.7824,3.237,-5.836,-1.601
1772932078414.7788,-0.2212,-0.5488,-0.7831,3.08,-5.897,-1.461
1772932078414.7788,-0.2206,-0.5492,-0.7796,2.914,-5.81,-1.654
1772932078414.7788,-0.2187,-0.5477,-0.7837,3.019,-5.714,-1.768
1772932078430.996,-0.218,-0.5483,-0.7803,3.237,-5.906,-1.811
1772932078430.996,-0.2181,-0.5473,-0.781,3.36,-5.976,-1.82
1772932078430.996,-0.2166,-0.5495,-0.7827,3.01,-5.985,-1.846
1772932078430.996,-0.2206,-0.5494,-0.7799,3.185,-5.994,-1.741
1772932078446.2078,-0.2188,-0.5472,-0.7784,3.255,-5.862,-1.864
1772932078446.2078,-0.2178,-0.548,-0.7804,3.299,-5.556,-2.03
1772932078446.2078,-0.2176,-0.5469,-0.7796,3.5,-5.959,-1.96
1772932078461.8586,-0.2176,-0.5486,-0.781,3.395,-5.723,-1.654
1772932078461.8586,-0.2196,-0.546,-0.7794,3.36,-5.749,-1.873
1772932078461.8586,-0.2167,-0.5458,-0.7804,3.272,-5.574,-1.82
1772932078461.8586,-0.2158,-0.5475,-0.7823,3.237,-5.556,-2.047
1772932078477.8542,-0.2212,-0.5467,-0.7848,3.281,-5.486,-1.951
1772932078477.8542,-0.22,-0.5459,-0.7831,3.098,-5.548,-1.916
1772932078477.8542,-0.2228,-0.5464,-0.7847,3.176,-5.53,-2.249
1772932078477.8542,-0.2197,-0.5492,-0.7842,3.141,-5.6,-2.118
1772932078477.8542,-0.2182,-0.5479,-0.7826,3.43,-5.6,-2.266
1772932078493.0798,-0.2211,-0.5524,-0.782,2.984,-5.416,-2.354
1772932078493.0798,-0.2142,-0.5525,-0.7808,2.257,-5.268,-2.502
1772932078493.0798,-0.2156,-0.549,-0.7857,1.846,-4.952,-3.22
1772932078493.0798,-0.2242,-0.5454,-0.7845,2.179,-5.652,-2.424
1772932078508.7063,-0.2189,-0.5444,-0.7879,2.669,-5.565,-2.214
1772932078508.7063,-0.2178,-0.551,-0.7867,3.132,-5.6,-2.389
1772932078508.7063,-0.2108,-0.5491,-0.7831,3.22,-5.67,-2.485
1772932078508.7063,-0.2139,-0.5506,-0.7817,3.098,-5.6,-2.433
1772932078524.3267,-0.2128,-0.549,-0.7832,2.397,-5.25,-2.538
1772932078524.3267,-0.2133,-0.5507,-0.7841,2.371,-5.906,-2.607
1772932078524.3267,-0.217,-0.5531,-0.7853,2.292,-5.626,-2.214
1772932078540.0674,-0.2228,-0.5492,-0.7837,2.319,-5.372,-2.205
1772932078540.0674,-0.2228,-0.5514,-0.7864,2.292,-5.617,-1.995
1772932078540.0674,-0.2204,-0.5508,-0.7873,2.24,-5.548,-1.776
1772932078540.0674,-0.2202,-0.5489,-0.7823,2.721,-5.714,-1.776
1772932078555.7786,-0.2173,-0.548,-0.7846,2.485,-5.574,-1.479
1772932078555.7786,-0.2183,-0.5485,-0.7843,2.301,-5.486,-1.426
1772932078555.7786,-0.2183,-0.547,-0.7832,2.511,-5.504,-1.365
1772932078555.7786,-0.2188,-0.5479,-0.781,2.476,-5.504,-1.829
1772932078571.5125,-0.2153,-0.5476,-0.787,2.074,-5.32,-1.522
1772932078571.5125,-0.2162,-0.5446,-0.7845,2.17,-5.381,-1.549
1772932078571.5125,-0.2155,-0.5488,-0.7871,2.476,-5.775,-2.126
1772932078571.5125,-0.2219,-0.5544,-0.7781,2.328,-5.836,-1.558
1772932078571.5125,-0.2194,-0.5555,-0.7817,2.301,-5.486,-1.488
1772932078586.5732,-0.2192,-0.5536,-0.788,2.371,-5.478,-1.295
1772932078586.5732,-0.2175,-0.5491,-0.7907,1.995,-5.635,-1.575
1772932078586.5732,-0.2169,-0.5453,-0.7845,2.196,-5.504,-1.566
1772932078586.5732,-0.2165,-0.5495,-0.7821,2.433,-6.003,-1.636
1772932078601.9546,-0.2033,-0.5488,-0.7825,2.319,-5.495,-1.032
1772932078601.9546,-0.2152,-0.548,-0.7842,2.275,-5.469,-1.041
1772932078601.9546,-0.2181,-0.5495,-0.7805,2.056,-5.548,-1.05
1772932078617.9658,-0.2173,-0.5506,-0.781,2.266,-5.513,-1.103
1772932078617.9658,-0.215,-0.5481,-0.7802,2.231,-5.539,-1.347
1772932078617.9658,-0.2156,-0.5455,-0.7803,2.074,-5.381,-1.417
1772932078617.9658,-0.2156,-0.5464,-0.7825,2.266,-5.591,-1.488
1772932078633.0264,-0.2158,-0.5444,-0.779,2.249,-5.442,-1.829
1772932078633.0264,-0.2181,-0.546,-0.7806,2.284,-5.609,-1.759
1772932078633.0264,-0.2172,-0.5457,-0.7817,2.52,-5.451,-1.881
1772932078633.0264,-0.2208,-0.5488,-0.783,2.441,-5.504,-1.75
1772932078648.7634,-0.2196,-0.5497,-0.7817,3.019,-5.451,-1.54
1772932078648.7634,-0.2192,-0.548,-0.7828,3.071,-5.495,-1.558
1772932078648.7634,-0.2159,-0.5454,-0.7823,3.132,-5.338,-1.549
1772932078648.7634,-0.2137,-0.542,-0.7796,3.089,-5.241,-1.706
1772932078648.7634,-0.2133,-0.5401,-0.7909,2.564,-5.346,-1.986
1772932078663.9878,-0.2072,-0.5416,-0.7845,2.791,-5.303,-1.899
1772932078663.9878,-0.2135,-0.5428,-0.7847,2.538,-5.565,-2.161
1772932078663.9878,-0.2143,-0.5489,-0.7833,2.292,-5.565,-2.345
1772932078663.9878,-0.2177,-0.5526,-0.7794,2.433,-5.25,-1.881
1772932078679.5337,-0.2211,-0.5562,-0.7836,2.336,-5.268,-1.75
1772932078679.5337,-0.2227,-0.5555,-0.7845,2.415,-5.189,-1.47
1772932078679.5337,-0.2178,-0.5519,-0.7824,2.59,-4.944,-1.347
1772932078695.321,-0.2187,-0.55,-0.7816,2.817,-5.617,-1.627
1772932078695.321,-0.2186,-0.5495,-0.7809,2.958,-5.416,-1.391
1772932078695.321,-0.2191,-0.5488,-0.7801,3.098,-5.355,-1.549
1772932078695.321,-0.2181,-0.5487,-0.781,2.931,-5.215,-1.619
1772932078711.521,-0.219,-0.5492,-0.7835,2.905,-5.338,-1.549
1772932078711.521,-0.2212,-0.5466,-0.7848,2.748,-5.609,-1.496
1772932078711.521,-0.2223,-0.5475,-0.7806,2.984,-5.486,-1.47
1772932078711.521,-0.2349,-0.5591,-0.7804,3.071,-4.821,-2.24
1772932078727.9287,-0.2159,-0.55,-0.7857,3.08,-4.751,-1.864
1772932078727.9287,-0.2149,-0.5455,-0.7785,2.958,-5.101,-1.575
1772932078727.9287,-0.2167,-0.5475,-0.7829,3.203,-5.539,-1.522
1772932078727.9287,-0.2192,-0.5454,-0.7806,3.264,-5.591,-1.566
1772932078727.9287,-0.2196,-0.546,-0.7782,3.351,-5.39,-1.54
1772932078743.215,-0.2221,-0.5489,-0.7806,3.36,-5.53,-1.802
1772932078743.215,-0.2201,-0.548,-0.7806,3.649,-5.154,-1.846
1772932078743.215,-0.2192,-0.5465,-0.7817,3.719,-4.935,-1.444
1772932078743.215,-0.2221,-0.5465,-0.7821,3.964,-4.97,-1.33
1772932078759.0078,-0.2219,-0.5477,-0.7857,4.051,-5.136,-1.409
1772932078759.0078,-0.2209,-0.5474,-0.7835,4.191,-4.699,-1.286
1772932078759.0078,-0.2208,-0.5489,-0.789,3.684,-4.664,-1.347
1772932078759.0078,-0.2178,-0.5516,-0.7902,3.36,-4.795,-1.925
1772932078775.0654,-0.2161,-0.5511,-0.7878,2.704,-5.836,-2.056
1772932078775.0654,-0.2208,-0.555,-0.7835,1.698,-6.143,-2.284
1772932078775.0654,-0.2207,-0.5555,-0.7803,0.884,-6.685,-2.721
1772932078775.0654,-0.2228,-0.5552,-0.7749,0.814,-7.061,-2.817
1772932078792.0037,-0.2231,-0.5546,-0.7714,0.919,-7.0,-2.678
1772932078792.0037,-0.2239,-0.552,-0.7682,1.505,-6.878,-2.074
1772932078792.0037,-0.223,-0.5485,-0.7737,1.986,-6.702,-1.785
1772932078792.0037,-0.2266,-0.5431,-0.7746,3.194,-5.88,-1.488
1772932078792.0037,-0.2261,-0.539,-0.7795,4.226,-5.311,-1.383
1772932078807.141,-0.2251,-0.54,-0.7879,5.513,-4.454,-0.963
1772932078807.141,-0.2191,-0.5443,-0.7871,5.731,-3.649,-0.647
1772932078822.3206,-0.2048,-0.5525,-0.7914,4.909,-3.5,-0.009
1772932078822.3206,-0.1986,-0.5514,-0.7881,3.815,-3.272,0.14
1772932078822.3206,-0.1954,-0.5459,-0.7914,2.354,-3.579,0.131
1772932078822.3206,-0.2003,-0.5392,-0.7926,1.96,-3.701,-0.367
1772932078822.3206,-0.2101,-0.5391,-0.7908,1.855,-4.095,-0.831
1772932078838.09,-0.2182,-0.5458,-0.7896,2.38,-4.235,-1.47
1772932078838.09,-0.2033,-0.5553,-0.7801,1.96,-4.165,-1.374
1772932078838.09,-0.2153,-0.5585,-0.7755,1.365,-4.279,-1.234
1772932078838.09,-0.2146,-0.5527,-0.7708,0.831,-4.865,-1.698
1772932078853.784,-0.2195,-0.55,-0.7715,0.7,-5.049,-1.881
1772932078853.784,-0.2224,-0.5507,-0.7676,0.542,-5.609,-1.811
1772932078853.784,-0.2273,-0.5523,-0.7665,1.041,-5.933,-2.065
1772932078853.784,-0.2284,-0.5536,-0.7638,1.522,-6.029,-2.091
1772932078868.8857,-0.2319,-0.5474,-0.7662,1.593,-5.985,-2.126
1772932078868.8857,-0.2302,-0.5442,-0.7682,2.607,-6.291,-2.03
1772932078868.8857,-0.2313,-0.5409,-0.7748,3.237,-6.011,-2.083
1772932078884.2405,-0.2314,-0.5423,-0.7818,4.296,-6.423,-2.354
1772932078884.2405,-0.2284,-0.5408,-0.7876,4.795,-6.107,-2.424
1772932078884.2405,-0.2256,-0.5425,-0.797,5.197,-6.431,-2.406
1772932078884.2405,-0.2217,-0.5454,-0.8032,5.329,-6.668,-2.599
1772932078899.6626,-0.2157,-0.5483,-0.8057,5.232,-6.869,-2.362
1772932078899.6626,-0.2091,-0.5506,-0.8027,4.751,-6.904,-2.502
1772932078899.6626,-0.2041,-0.5522,-0.8034,4.095,-7.14,-2.511
1772932078899.6626,-0.2024,-0.5565,-0.7974,3.482,-7.245,-2.415
1772932078899.6626,-0.204,-0.556,-0.8011,2.905,-7.114,-2.502
1772932078914.8298,-0.2077,-0.5584,-0.8006,2.914,-6.982,-2.45
1772932078914.8298,-0.2081,-0.5591,-0.7985,2.31,-6.589,-2.135
1772932078914.8298,-0.2143,-0.5561,-0.7933,2.52,-6.344,-1.873
1772932078914.8298,-0.2165,-0.5569,-0.7904,2.599,-6.379,-1.89
1772932078930.7837,-0.2174,-0.555,-0.7882,2.94,-5.976,-1.706
1772932078930.7837,-0.2199,-0.5559,-0.7833,3.334,-6.221,-1.698
1772932078930.7837,-0.2184,-0.5531,-0.7778,3.544,-5.862,-1.671
1772932078930.7837,-0.2178,-0.556,-0.7737,3.596,-5.276,-1.706
1772932078946.8213,-0.2182,-0.554,-0.7745,3.92,-5.303,-1.479
1772932078946.8213,-0.2161,-0.5525,-0.769,4.077,-4.655,-1.304
1772932078946.8213,-0.2174,-0.5482,-0.7713,3.675,-4.655,-1.269
1772932078962.1082,-0.2209,-0.546,-0.7727,3.386,-4.594,-1.111
1772932078962.1082,-0.2212,-0.5436,-0.7722,3.159,-4.445,-1.076
1772932078962.1082,-0.2192,-0.54,-0.7729,3.08,-4.209,-1.146
1772932078962.1082,-0.2209,-0.5416,-0.7751,2.993,-4.655,-1.26
1772932078978.1719,-0.2213,-0.5378,-0.7749,2.993,-4.944,-1.33
1772932078978.1719,-0.2218,-0.5386,-0.7757,2.993,-5.022,-1.251
1772932078978.1719,-0.2209,-0.5391,-0.7757,3.08,-4.69,-1.593
1772932078978.1719,-0.2183,-0.5413,-0.7765,3.237,-4.909,-1.286
1772932078978.1719,-0.2183,-0.5413,-0.7787,3.264,-5.119,-1.522
1772932078993.0603,-0.2158,-0.5356,-0.7801,3.386,-4.996,-1.802
1772932078993.0603,-0.2157,-0.5453,-0.7777,3.675,-5.67,-1.978
1772932078993.0603,-0.2171,-0.5483,-0.7699,3.833,-5.46,-1.706
1772932078993.0603,-0.2131,-0.5509,-0.77,4.147,-5.224,-1.811
1772932079008.1167,-0.2123,-0.5479,-0.7773,3.902,-5.171,-1.785
1772932079008.1167,-0.2115,-0.5427,-0.7768,4.183,-5.005,-1.802
1772932079008.1167,-0.2113,-0.5413,-0.7746,4.13,-5.268,-1.969
1772932079023.1023,-0.2154,-0.5449,-0.7748,4.489,-5.075,-1.916
1772932079023.1023,-0.2146,-0.546,-0.7788,4.646,-5.005,-1.75
1772932079023.1023,-0.2155,-0.5486,-0.7788,4.532,-4.883,-1.759
1772932079023.1023,-0.2175,-0.5474,-0.7811,4.629,-4.979,-1.584
1772932079038.9102,-0.2184,-0.5474,-0.7826,4.734,-4.734,-1.514
1772932079038.9102,-0.2225,-0.5474,-0.7832,4.856,-4.935,-1.304
1772932079038.9102,-0.2233,-0.5523,-0.7845,4.909,-4.646,-1.479
1772932079038.9102,-0.2225,-0.5499,-0.7893,4.69,-4.515,-1.417
1772932079054.4482,-0.2227,-0.5514,-0.7873,4.62,-4.97,-1.339
1772932079054.4482,-0.2211,-0.5528,-0.7898,4.244,-4.918,-1.522
1772932079054.4482,-0.2209,-0.5571,-0.7898,4.454,-4.891,-1.461
1772932079054.4482,-0.2205,-0.5542,-0.7893,4.174,-5.005,-1.575
1772932079054.4482,-0.2184,-0.5542,-0.789,4.191,-5.101,-1.75
1772932079070.0818,-0.2238,-0.5533,-0.79,4.156,-5.329,-1.645
1772932079070.0818,-0.2217,-0.5521,-0.7895,4.541,-5.058,-1.549
1772932079070.0818,-0.2239,-0.5546,-0.792,4.428,-4.611,-1.505
1772932079070.0818,-0.2203,-0.5547,-0.7926,4.541,-4.707,-1.278
1772932079085.0715,-0.2178,-0.5547,-0.7906,4.121,-4.41,-0.91
1772932079085.0715,-0.2173,-0.5552,-0.7914,4.112,-4.611,-0.945
1772932079085.0715,-0.2171,-0.555,-0.7926,4.051,-4.865,-1.208
1772932079101.136,-0.2159,-0.5566,-0.7904,4.095,-4.681,-1.006
1772932079101.136,-0.2164,-0.5605,-0.788,3.509,-4.909,-1.006
1772932079101.136,-0.2104,-0.5585,-0.7838,3.264,-4.585,-0.91
1772932079101.136,-0.2115,-0.5592,-0.7801,3.08,-5.338,-0.989
1772932079116.4927,-0.2112,-0.5579,-0.7775,3.054,-5.303,-1.146
1772932079116.4927,-0.2139,-0.5533,-0.7749,2.809,-5.171,-0.989
1772932079116.4927,-0.212,-0.5549,-0.7742,3.01,-4.987,-0.98
1772932079116.4927,-0.2156,-0.5542,-0.7716,3.308,-4.541,-0.892
1772932079132.0845,-0.2162,-0.5514,-0.7713,3.57,-4.226,-0.709
1772932079132.0845,-0.2184,-0.5506,-0.7732,3.815,-4.322,-0.744
1772932079132.0845,-0.2125,-0.5505,-0.7745,4.051,-3.815,-0.376
1772932079132.0845,-0.2194,-0.5447,-0.7716,4.191,-3.763,-0.359
1772932079147.9377,-0.2129,-0.551,-0.7793,4.314,-3.491,-0.446
1772932079147.9377,-0.2165,-0.5449,-0.7776,4.209,-3.78,-0.42
1772932079147.9377,-0.2171,-0.5447,-0.7749,3.841,-3.684,-0.464
1772932079147.9377,-0.2165,-0.5411,-0.7776,3.815,-3.981,-1.024
1772932079147.9377,-0.2168,-0.541,-0.7788,3.649,-4.121,-1.111
1772932079163.1133,-0.213,-0.5433,-0.7765,3.719,-4.235,-1.199
1772932079163.1133,-0.2165,-0.5448,-0.7798,3.999,-4.576,-1.461
1772932079163.1133,-0.2132,-0.5484,-0.7765,4.174,-4.349,-1.129
1772932079178.6558,-0.2129,-0.547,-0.7791,4.445,-4.349,-0.998
1772932079178.6558,-0.2109,-0.5469,-0.7818,4.62,-4.191,-0.875
1772932079178.6558,-0.2109,-0.5468,-0.7835,4.638,-4.305,-0.901
1772932079178.6558,-0.2123,-0.5486,-0.782,4.611,-4.305,-1.208
1772932079193.3599,-0.2144,-0.5494,-0.7836,4.979,-4.401,-1.225
1772932079193.3599,-0.2145,-0.5492,-0.7848,4.707,-4.226,-1.47
1772932079193.3599,-0.2155,-0.5513,-0.7815,4.69,-4.2,-1.33
1772932079193.3599,-0.2173,-0.5534,-0.7835,4.812,-4.366,-1.619
1772932079209.0159,-0.2156,-0.5556,-0.7806,4.673,-4.191,-1.654
1772932079209.0159,-0.2143,-0.555,-0.7804,4.979,-4.384,-1.531
1772932079209.0159,-0.2115,-0.5585,-0.7814,4.909,-4.646,-1.347
1772932079209.0159,-0.2153,-0.5546,-0.7839,4.707,-4.235,-1.505
1772932079224.2278,-0.2165,-0.5541,-0.7815,5.022,-4.305,-1.365
1772932079224.2278,-0.2138,-0.5546,-0.7819,4.804,-4.112,-1.776
1772932079224.2278,-0.2111,-0.5528,-0.7821,4.769,-4.331,-1.776
1772932079240.4036,-0.2161,-0.5539,-0.7786,4.76,-4.147,-1.514
1772932079240.4036,-0.2147,-0.5536,-0.7837,4.489,-4.419,-1.759
1772932079240.4036,-0.2161,-0.5517,-0.7823,4.611,-4.629,-1.829
1772932079240.4036,-0.213,-0.5544,-0.7809,4.515,-4.463,-2.135
1772932079255.9429,-0.2152,-0.5552,-0.781,4.515,-4.532,-1.995
1772932079255.9429,-0.212,-0.5571,-0.7809,4.287,-4.567,-1.837
1772932079255.9429,-0.2142,-0.5569,-0.7801,4.515,-4.576,-1.374
1772932079255.9429,-0.2138,-0.5571,-0.7786,4.366,-4.489,-1.61
1772932079255.9429,-0.2143,-0.5601,-0.7791,4.331,-4.48,-1.566
1772932079271.5583,-0.2143,-0.5625,-0.7768,4.287,-4.428,-1.216
1772932079271.5583,-0.215,-0.5605,-0.7751,4.025,-4.322,-1.094
1772932079271.5583,-0.2176,-0.5576,-0.7754,3.85,-4.76,-1.181
1772932079271.5583,-0.2169,-0.5581,-0.78,3.938,-4.567,-1.103
1772932079287.8523,-0.2161,-0.5578,-0.7774,3.596,-4.673,-1.225
1772932079287.8523,-0.2173,-0.5575,-0.7763,3.614,-4.655,-1.173
1772932079287.8523,-0.2178,-0.5548,-0.7767,3.587,-4.673,-1.26
1772932079287.8523,-0.2166,-0.557,-0.7754,3.482,-4.463,-1.654
1772932079303.7876,-0.22,-0.5549,-0.7773,3.509,-4.532,-1.4
1772932079303.7876,-0.2191,-0.5533,-0.7799,3.421,-4.594,-1.374
1772932079303.7876,-0.2158,-0.5537,-0.7809,3.491,-4.742,-1.811
1772932079303.7876,-0.2181,-0.5538,-0.7797,3.614,-4.707,-1.479
1772932079303.7876,-0.2176,-0.5556,-0.7768,3.342,-4.559,-1.671
1772932079319.1143,-0.2179,-0.5583,-0.7768,3.658,-4.305,-1.103
1772932079319.1143,-0.2164,-0.5539,-0.7791,3.824,-4.497,-1.496
1772932079334.6733,-0.2126,-0.5556,-0.7799,3.868,-4.428,-1.33
1772932079334.6733,-0.2099,-0.5541,-0.7788,4.165,-4.594,-1.251
1772932079334.6733,-0.2121,-0.5508,-0.7812,4.401,-4.707,-1.094
1772932079334.6733,-0.2087,-0.5529,-0.7829,4.41,-4.69,-1.076
1772932079334.6733,-0.2133,-0.5531,-0.7839,4.331,-4.918,-1.347
1772932079349.928,-0.2159,-0.553,-0.7865,4.463,-4.856,-1.225
1772932079349.928,-0.2153,-0.5546,-0.7837,4.322,-5.014,-1.514
1772932079349.928,-0.2162,-0.5549,-0.7845,4.322,-4.961,-1.452
1772932079349.928,-0.2195,-0.5558,-0.783,4.156,-5.197,-1.374
1772932079365.0046,-0.2208,-0.5547,-0.7808,4.209,-5.197,-1.111
1772932079365.0046,-0.2199,-0.5567,-0.7793,4.629,-5.215,-1.181
1772932079365.0046,-0.2194,-0.5551,-0.7781,4.532,-5.259,-1.409
1772932079365.0046,-0.2161,-0.5561,-0.7795,4.821,-5.25,-1.312
1772932079380.791,-0.2123,-0.5574,-0.7749,4.979,-5.18,-1.627
1772932079380.791,-0.2108,-0.5589,-0.7734,4.996,-5.128,-1.558
1772932079380.791,-0.2114,-0.5571,-0.7742,4.821,-5.066,-1.531
1772932079380.791,-0.2104,-0.5573,-0.7753,5.25,-5.232,-1.785
1772932079396.3203,-0.2149,-0.5585,-0.7756,4.769,-5.215,-1.837
1772932079396.3203,-0.2153,-0.5596,-0.7761,5.022,-4.987,-1.452
1772932079396.3203,-0.2139,-0.5608,-0.7743,5.154,-4.926,-1.444
1772932079412.775,-0.2171,-0.562,-0.7754,4.961,-5.075,-1.452
1772932079412.775,-0.2171,-0.5625,-0.7762,4.576,-4.742,-1.356
1772932079412.775,-0.2188,-0.5585,-0.7746,4.9,-4.777,-1.47
1772932079412.775,-0.2178,-0.5578,-0.7752,4.734,-4.664,-1.47
1772932079412.775,-0.2177,-0.5591,-0.7763,4.707,-4.585,-1.759
1772932079427.8333,-0.2172,-0.5574,-0.7782,4.559,-4.681,-1.286
1772932079427.8333,-0.2169,-0.5561,-0.7788,4.638,-4.664,-1.286
1772932079427.8333,-0.2176,-0.5552,-0.7754,4.812,-4.751,-1.391
1772932079427.8333,-0.2141,-0.5561,-0.7773,4.594,-4.559,-1.094
1772932079443.4736,-0.2134,-0.5546,-0.7781,4.524,-4.716,-1.129
1772932079443.4736,-0.2152,-0.5541,-0.7745,4.419,-4.34,-0.989
1772932079443.4736,-0.2117,-0.5554,-0.7773,4.428,-4.725,-1.295
1772932079443.4736,-0.2149,-0.5567,-0.7762,4.393,-4.401,-1.251
1772932079458.7754,-0.2144,-0.5558,-0.7764,4.655,-4.585,-1.47
1772932079458.7754,-0.212,-0.5548,-0.7761,4.777,-4.751,-1.347
1772932079458.7754,-0.2122,-0.5558,-0.7768,4.9,-4.366,-1.391
1772932079458.7754,-0.2145,-0.5586,-0.776,5.241,-4.751,-1.374
1772932079474.0134,-0.2126,-0.5577,-0.7779,5.451,-4.883,-1.251
1772932079474.0134,-0.2116,-0.5583,-0.7775,5.696,-4.865,-1.295
1772932079474.0134,-0.2097,-0.5585,-0.7758,5.425,-4.681,-1.663
1772932079490.034,-0.2087,-0.5581,-0.7784,5.626,-4.681,-1.558
1772932079490.034,-0.2097,-0.56,-0.7775,5.6,-4.69,-1.689
1772932079490.034,-0.2082,-0.5575,-0.7782,5.416,-4.952,-1.435
1772932079490.034,-0.2115,-0.5573,-0.7784,5.355,-4.69,-1.269
1772932079505.1926,-0.2095,-0.558,-0.7808,5.434,-4.716,-1.339
1772932079505.1926,-0.2129,-0.5574,-0.7765,5.364,-4.961,-1.496
1772932079505.1926,-0.2148,-0.5567,-0.7798,5.53,-4.839,-1.409
1772932079505.1926,-0.2154,-0.5586,-0.7817,5.486,-4.777,-1.452
1772932079505.1926,-0.2169,-0.5597,-0.7767,5.241,-4.987,-1.374
1772932079521.2747,-0.2136,-0.5627,-0.7806,5.53,-4.935,-1.374
1772932079521.2747,-0.2165,-0.5617,-0.779,5.53,-4.856,-1.522
1772932079521.2747,-0.2124,-0.5613,-0.7765,5.574,-5.119,-1.522
1772932079521.2747,-0.211,-0.5652,-0.7785,6.055,-5.022,-1.417
1772932079536.8691,-0.2108,-0.5638,-0.774,6.151,-4.786,-1.383
1772932079536.8691,-0.207,-0.5623,-0.7739,5.985,-4.707,-1.689
1772932079536.8691,-0.2082,-0.5613,-0.7728,5.906,-4.996,-1.706
1772932079536.8691,-0.214,-0.5616,-0.7764,5.74,-5.084,-1.68
1772932079551.8738,-0.2142,-0.5625,-0.7749,5.548,-5.014,-1.627
1772932079551.8738,-0.2155,-0.562,-0.7777,5.232,-4.777,-1.295
1772932079551.8738,-0.217,-0.5621,-0.7793,5.197,-4.786,-1.522
1772932079567.8535,-0.2149,-0.564,-0.7762,5.32,-4.567,-0.989
1772932079567.8535,-0.2135,-0.5625,-0.7784,5.329,-4.567,-1.225
1772932079567.8535,-0.2101,-0.5605,-0.7749,5.381,-4.646,-1.347
1772932079567.8535,-0.2084,-0.5609,-0.7755,5.399,-4.532,-1.103
1772932079583.0664,-0.2056,-0.5627,-0.7746,5.355,-4.83,-1.4
1772932079583.0664,-0.2073,-0.5643,-0.7757,5.688,-5.04,-1.54
1772932079583.0664,-0.2054,-0.5636,-0.7738,5.434,-4.848,-1.846
1772932079583.0664,-0.2071,-0.5627,-0.7773,5.46,-4.987,-1.776
1772932079583.0664,-0.2064,-0.5597,-0.7752,5.521,-4.393,-1.837
1772932079597.832,-0.2098,-0.5607,-0.7767,5.513,-4.76,-1.785
1772932079597.832,-0.2104,-0.5606,-0.777,5.355,-4.734,-2.004
1772932079597.832,-0.2128,-0.5641,-0.7767,5.434,-4.62,-1.706
1772932079597.832,-0.2123,-0.5649,-0.7716,5.259,-4.716,-1.768
1772932079613.0957,-0.2161,-0.5663,-0.7717,5.093,-4.716,-1.724
1772932079613.0957,-0.217,-0.5655,-0.7707,5.04,-4.751,-1.61
1772932079613.0957,-0.2133,-0.5662,-0.7725,5.128,-4.707,-1.374
1772932079629.542,-0.2107,-0.5636,-0.7719,5.145,-4.603,-1.216
1772932079629.542,-0.2141,-0.5622,-0.7742,5.285,-4.935,-1.339
1772932079629.542,-0.2122,-0.5643,-0.7735,5.32,-5.119,-1.199
1772932079629.542,-0.2122,-0.5643,-0.7761,5.136,-4.664,-1.242
1772932079645.4775,-0.2119,-0.566,-0.7715,5.338,-4.673,-1.26
1772932079645.4775,-0.2098,-0.5668,-0.7741,5.25,-4.812,-1.173
1772932079645.4775,-0.209,-0.5644,-0.7742,5.434,-5.022,-1.304
1772932079645.4775,-0.209,-0.5649,-0.7707,5.591,-4.795,-1.12
1772932079661.1614,-0.2075,-0.5672,-0.7734,5.731,-4.821,-1.199
1772932079661.1614,-0.2102,-0.5683,-0.7705,5.338,-4.585,-0.91
1772932079661.1614,-0.2103,-0.5682,-0.7737,5.565,-4.777,-1.067
1772932079661.1614,-0.2111,-0.5675,-0.7705,5.617,-4.725,-0.884
1772932079661.1614,-0.2116,-0.5668,-0.7726,5.469,-4.664,-0.682
1772932079676.96,-0.2136,-0.5645,-0.7734,5.206,-4.716,-0.796
1772932079676.96,-0.2092,-0.5653,-0.7767,5.189,-4.393,-0.892
1772932079676.96,-0.2103,-0.5641,-0.775,5.338,-4.55,-0.796
1772932079676.96,-0.2079,-0.5656,-0.7731,5.11,-4.786,-1.094
1772932079692.142,-0.2072,-0.5651,-0.7732,4.918,-4.952,-1.225
1772932079692.142,-0.209,-0.5662,-0.7742,4.891,-4.742,-1.234
1772932079692.142,-0.2103,-0.5675,-0.7716,4.865,-5.022,-1.225
1772932079692.142,-0.2125,-0.5714,-0.7707,4.952,-5.093,-1.199
1772932079707.7783,-0.213,-0.5721,-0.7701,4.734,-5.276,-0.805
1772932079707.7783,-0.2153,-0.5725,-0.7732,4.567,-5.224,-0.884
1772932079707.7783,-0.2104,-0.5705,-0.7685,4.541,-5.04,-0.682
1772932079722.9211,-0.2126,-0.5699,-0.7702,4.638,-4.935,-0.718
1772932079722.9211,-0.2125,-0.5679,-0.7717,4.419,-4.891,-0.971
1772932079722.9211,-0.2101,-0.5636,-0.7746,4.191,-4.883,-1.05
1772932079722.9211,-0.2161,-0.5645,-0.7735,4.112,-5.014,-1.33
1772932079737.9746,-0.2132,-0.5633,-0.7745,4.322,-5.049,-1.365
1772932079737.9746,-0.2114,-0.5655,-0.7749,4.497,-5.101,-1.417
1772932079737.9746,-0.2143,-0.5628,-0.7734,4.532,-5.355,-1.531
1772932079737.9746,-0.2142,-0.5697,-0.772,4.9,-5.014,-1.347
1772932079753.5696,-0.2119,-0.5683,-0.7708,4.918,-5.022,-1.444
1772932079753.5696,-0.2101,-0.566,-0.7732,5.031,-4.603,-1.181
1772932079753.5696,-0.2103,-0.5669,-0.7785,4.952,-4.594,-1.137
1772932079753.5696,-0.2072,-0.5671,-0.7775,4.716,-4.891,-1.365
1772932079753.5696,-0.2088,-0.5723,-0.7749,4.183,-5.101,-1.4
1772932079768.8572,-0.208,-0.5754,-0.7712,3.509,-5.784,-1.715
1772932079768.8572,-0.2099,-0.5796,-0.7657,2.651,-6.125,-2.013
1772932079768.8572,-0.2106,-0.579,-0.7654,2.074,-6.668,-2.223
1772932079783.847,-0.2123,-0.5749,-0.7584,2.196,-6.895,-2.38
1772932079783.847,-0.2101,-0.568,-0.7587,2.616,-6.624,-2.634
1772932079783.847,-0.2096,-0.5701,-0.7584,3.019,-6.843,-2.564
1772932079783.847,-0.2104,-0.5636,-0.7586,3.684,-6.606,-2.783
1772932079798.9521,-0.2142,-0.5545,-0.7653,4.532,-6.046,-2.441
1772932079798.9521,-0.2176,-0.5501,-0.7712,6.256,-5.285,-2.144
1772932079798.9521,-0.2047,-0.5546,-0.7844,7.105,-4.34,-1.68
1772932079798.9521,-0.2154,-0.5616,-0.7862,7.289,-3.71,-1.155
1772932079814.8887,-0.2091,-0.5666,-0.7862,6.659,-3.237,-0.814
1772932079814.8887,-0.2006,-0.5664,-0.7909,5.294,-3.08,-0.49
1772932079814.8887,-0.1947,-0.5641,-0.7881,3.938,-3.439,-0.77
1772932079814.8887,-0.1965,-0.5628,-0.7893,3.308,-3.666,-1.103
1772932079830.253,-0.1996,-0.5641,-0.7834,3.176,-3.876,-1.383
1772932079830.253,-0.2108,-0.5702,-0.7802,2.94,-4.603,-1.776
1772932079830.253,-0.2086,-0.579,-0.7769,2.914,-4.454,-1.619
1772932079846.3567,-0.2092,-0.5804,-0.7729,2.249,-4.786,-1.619
1772932079846.3567,-0.2111,-0.5816,-0.7678,1.671,-4.664,-1.75
1772932079846.3567,-0.2092,-0.5767,-0.7643,0.91,-5.075,-1.654
1772932079846.3567,-0.2112,-0.5735,-0.7571,0.936,-5.504,-1.715
1772932079861.8713,-0.2136,-0.5737,-0.7552,1.312,-5.285,-1.846
1772932079861.8713,-0.2151,-0.57,-0.7523,1.558,-5.416,-2.056
1772932079861.8713,-0.2139,-0.5689,-0.7535,1.794,-5.407,-1.881
1772932079861.8713,-0.2128,-0.5638,-0.7563,2.441,-5.442,-2.021
1772932079861.8713,-0.2174,-0.5634,-0.7601,3.413,-5.548,-2.441
1772932079877.8274,-0.2174,-0.5592,-0.774,3.763,-5.714,-2.643
1772932079877.8274,-0.2187,-0.5597,-0.7804,4.174,-6.081,-2.896
1772932079877.8274,-0.2155,-0.5622,-0.7854,3.885,-6.291,-3.071
1772932079877.8274,-0.2183,-0.5648,-0.7917,3.684,-6.825,-3.019
1772932079893.1943,-0.2177,-0.5655,-0.7959,3.062,-7.7,-3.255
1772932079893.1943,-0.2136,-0.5716,-0.7946,1.995,-8.426,-3.413
1772932079893.1943,-0.209,-0.5741,-0.7948,1.103,-8.916,-3.308
1772932079893.1943,-0.2116,-0.5772,-0.7887,0.499,-9.1,-3.281
1772932079908.8596,-0.2108,-0.5806,-0.7853,0.376,-9.135,-3.176
1772932079908.8596,-0.2081,-0.5839,-0.7819,0.718,-9.126,-2.844
1772932079908.8596,-0.2087,-0.579,-0.7804,0.761,-8.619,-2.476
1772932079908.8596,-0.2048,-0.579,-0.7767,1.164,-8.164,-2.118
1772932079908.8596,-0.2032,-0.5742,-0.7701,1.575,-7.787,-2.126
1772932079924.9485,-0.2045,-0.5725,-0.7679,2.721,-7.438,-1.969
1772932079924.9485,-0.2013,-0.5743,-0.7637,3.185,-6.974,-1.925
1772932079924.9485,-0.2006,-0.5748,-0.7584,3.868,-6.055,-1.89
1772932079924.9485,-0.1993,-0.5755,-0.7575,3.902,-5.434,-2.074
1772932079940.1597,-0.1983,-0.5726,-0.7562,4.156,-4.769,-2.144
1772932079940.1597,-0.2003,-0.5685,-0.757,3.815,-4.322,-2.118
1772932079940.1597,-0.2037,-0.5656,-0.7612,3.797,-3.876,-1.627
1772932079955.2244,-0.208,-0.5627,-0.7616,3.675,-4.174,-2.284
1772932079955.2244,-0.2113,-0.5613,-0.7638,3.675,-4.183,-2.328
1772932079955.2244,-0.2197,-0.5619,-0.7709,3.334,-4.445,-2.24
1772932079955.2244,-0.2182,-0.5624,-0.7718,3.561,-4.83,-2.45
1772932079971.9087,-0.2183,-0.5625,-0.7688,3.684,-4.751,-2.354
1772932079971.9087,-0.2183,-0.5641,-0.7713,3.946,-5.416,-2.118
1772932079971.9087,-0.2178,-0.5695,-0.773,3.894,-5.268,-2.345
1772932079971.9087,-0.2155,-0.5687,-0.7725,3.999,-5.591,-1.942
1772932079987.6907,-0.215,-0.5695,-0.7708,3.771,-5.679,-1.969
1772932079987.6907,-0.2136,-0.5678,-0.7713,3.946,-5.845,-1.873
1772932079987.6907,-0.2112,-0.568,-0.7701,3.999,-5.968,-1.68
1772932079987.6907,-0.2059,-0.5649,-0.7707,4.043,-5.985,-1.768
1772932080003.3674,-0.2054,-0.5657,-0.7693,4.183,-5.766,-1.855
1772932080003.3674,-0.2063,-0.5658,-0.7681,4.095,-5.758,-2.013
1772932080003.3674,-0.2047,-0.5652,-0.7659,4.112,-5.775,-2.24
1772932080003.3674,-0.2084,-0.5638,-0.7641,4.051,-5.889,-2.564
1772932080003.3674,-0.2067,-0.5653,-0.7496,3.929,-5.416,-2.161
1772932080018.9832,-0.2075,-0.5682,-0.7633,3.833,-5.276,-2.013
1772932080018.9832,-0.2086,-0.568,-0.7624,3.85,-5.372,-1.978
1772932080018.9832,-0.209,-0.5681,-0.7636,3.771,-5.25,-2.056
1772932080034.6238,-0.2117,-0.5698,-0.7642,3.981,-5.224,-1.899
1772932080034.6238,-0.2065,-0.5716,-0.769,4.008,-5.119,-2.004
1772932080034.6238,-0.2069,-0.5714,-0.7669,4.183,-4.725,-1.645
1772932080034.6238,-0.2122,-0.5719,-0.767,4.016,-4.926,-1.627
1772932080051.2087,-0.2115,-0.572,-0.7691,4.419,-5.154,-1.417
1772932080051.2087,-0.2083,-0.5714,-0.7716,4.375,-5.311,-1.706
1772932080051.2087,-0.2126,-0.5728,-0.7681,4.244,-4.97,-1.706
1772932080051.2087,-0.2106,-0.5697,-0.7712,2.31,-4.76,-1.741
1772932080066.655,-0.2121,-0.5721,-0.7701,4.165,-4.611,-1.899
1772932080066.655,-0.2121,-0.5694,-0.771,4.515,-4.541,-1.837
1772932080066.655,-0.2115,-0.5695,-0.7691,4.611,-4.751,-1.907
1772932080066.655,-0.215,-0.5708,-0.7741,4.804,-4.532,-1.601
1772932080082.0288,-0.218,-0.571,-0.7742,4.638,-4.716,-1.724
1772932080082.0288,-0.2118,-0.5717,-0.7729,4.375,-4.226,-1.304
1772932080082.0288,-0.2029,-0.5527,-0.7859,3.946,-4.183,-1.715
1772932080082.0288,-0.2207,-0.5813,-0.7695,4.034,-4.611,-1.566
1772932080082.0288,-0.2116,-0.5782,-0.7675,4.305,-4.83,-0.954
1772932080098.0964,-0.2066,-0.5851,-0.7752,3.981,-4.375,-0.779
1772932080098.0964,-0.2109,-0.5785,-0.7796,3.692,-4.603,-0.954
1772932080098.0964,-0.2109,-0.5771,-0.7773,3.237,-4.506,-0.998
1772932080098.0964,-0.2097,-0.5785,-0.7768,3.106,-4.839,-1.216
1772932080113.747,-0.2062,-0.5788,-0.7691,3.246,-4.874,-1.4
1772932080113.747,-0.2048,-0.5786,-0.7696,3.246,-5.101,-1.321
1772932080113.747,-0.2054,-0.5787,-0.7657,2.975,-4.935,-1.278
1772932080129.6074,-0.2055,-0.5765,-0.7638,2.888,-5.022,-1.041
1772932080129.6074,-0.2072,-0.5738,-0.7668,3.185,-4.34,-1.094
1772932080129.6074,-0.2073,-0.5744,-0.764,3.561,-4.384,-1.19
1772932080129.6074,-0.2043,-0.5757,-0.7639,3.596,-4.393,-0.84
1772932080145.6877,-0.203,-0.5741,-0.7663,3.474,-4.121,-1.085
1772932080145.6877,-0.2023,-0.5716,-0.7699,3.334,-3.885,-0.91
1772932080145.6877,-0.2028,-0.569,-0.7666,3.316,-4.06,-1.19
1772932080145.6877,-0.2037,-0.5672,-0.771,3.447,-4.357,-1.208
1772932080161.084,-0.2073,-0.5661,-0.7706,3.413,-4.576,-1.575
1772932080161.084,-0.2078,-0.5672,-0.7719,3.36,-4.515,-2.152
1772932080161.084,-0.209,-0.5693,-0.7707,3.299,-4.987,-2.257
1772932080161.084,-0.2074,-0.5711,-0.7714,3.264,-4.769,-2.406
1772932080161.084,-0.2069,-0.5723,-0.7723,2.993,-5.259,-2.179
1772932080177.6924,-0.2073,-0.5743,-0.7736,2.809,-4.952,-2.109
1772932080177.6924,-0.2116,-0.5718,-0.7718,2.905,-5.093,-1.811
1772932080177.6924,-0.2131,-0.5733,-0.7716,2.826,-5.049,-1.461
1772932080177.6924,-0.2114,-0.575,-0.7671,2.721,-4.83,-1.365
1772932080193.0818,-0.2117,-0.5738,-0.7693,2.826,-5.075,-1.426
1772932080193.0818,-0.2092,-0.5761,-0.7687,3.159,-4.786,-0.7
1772932080193.0818,-0.2061,-0.5728,-0.7676,3.22,-4.716,-0.578
1772932080193.0818,-0.2059,-0.5714,-0.7685,2.914,-4.707,-0.63
1772932080208.7273,-0.2005,-0.5698,-0.7663,3.062,-4.296,-0.709
1772932080208.7273,-0.2005,-0.5698,-0.7673,2.966,-4.322,-0.84
1772932080208.7273,-0.2015,-0.5691,-0.7655,3.308,-4.445,-0.805
1772932080208.7273,-0.2011,-0.5685,-0.7699,3.36,-4.357,-1.032
1772932080224.0293,-0.2018,-0.5694,-0.7707,3.369,-6.501,-1.225
1772932080224.0293,-0.2042,-0.5689,-0.7745,3.876,-4.497,-1.304
1772932080224.0293,-0.2045,-0.5724,-0.7691,3.771,-4.515,-1.234
1772932080239.16,-0.2065,-0.5724,-0.7715,3.797,-4.594,-1.435
1772932080239.16,-0.206,-0.5716,-0.7737,3.649,-4.366,-1.558
1772932080239.16,-0.2053,-0.5723,-0.7721,3.675,-4.349,-1.242
1772932080239.16,-0.2058,-0.5741,-0.77,3.491,-4.253,-1.47
1772932080254.38,-0.2073,-0.5757,-0.7716,3.211,-4.41,-1.365
1772932080254.38,-0.2095,-0.5747,-0.7693,2.931,-4.769,-1.26
1772932080254.38,-0.209,-0.5727,-0.7699,3.106,-4.9,-1.312
1772932080254.38,-0.2077,-0.5717,-0.7734,3.001,-4.839,-1.461
1772932080254.38,-0.2085,-0.5736,-0.7698,2.905,-4.699,-1.417
1772932080269.9443,-0.205,-0.5717,-0.7721,2.914,-4.961,-1.978
1772932080269.9443,-0.2059,-0.5719,-0.7662,3.036,-5.005,-1.75
1772932080269.9443,-0.2047,-0.571,-0.7699,2.826,-4.961,-1.837
1772932080269.9443,-0.2033,-0.572,-0.7665,2.581,-4.97,-1.96
1772932080284.7737,-0.2047,-0.5719,-0.7655,2.704,-5.128,-1.925
1772932080284.7737,-0.2075,-0.571,-0.7691,2.8,-5.416,-1.969
1772932080284.7737,-0.2069,-0.5736,-0.7684,2.888,-5.425,-1.925
1772932080301.1729,-0.2087,-0.5748,-0.7663,3.001,-5.372,-1.593
1772932080301.1729,-0.2045,-0.5759,-0.7651,3.43,-5.11,-1.505
1772932080301.1729,-0.2045,-0.5776,-0.7662,3.342,-5.232,-1.636
1772932080301.1729,-0.2055,-0.5772,-0.7664,3.308,-5.25,-1.671
1772932080316.069,-0.2063,-0.5791,-0.77,3.325,-4.725,-1.4
1772932080316.069,-0.2047,-0.5783,-0.7718,3.482,-5.04,-1.199
1772932080316.069,-0.2078,-0.5793,-0.772,3.29,-4.629,-1.365
1772932080316.069,-0.2084,-0.574,-0.7717,3.237,-5.031,-1.383
1772932080331.1921,-0.2066,-0.5751,-0.7737,3.211,-5.119,-1.216
1772932080331.1921,-0.207,-0.5743,-0.7722,3.185,-5.084,-1.461
1772932080331.1921,-0.21,-0.5725,-0.7726,3.071,-5.005,-1.111
1772932080331.1921,-0.2094,-0.5731,-0.771,3.124,-5.058,-1.155
1772932080331.1921,-0.208,-0.5735,-0.7709,2.888,-5.285,-0.954
1772932080347.7417,-0.2092,-0.5724,-0.7709,3.01,-5.294,-0.963
1772932080347.7417,-0.2081,-0.5714,-0.7702,2.914,-5.329,-0.998
1772932080347.7417,-0.2074,-0.5709,-0.7697,2.354,-5.154,-1.146
1772932080347.7417,-0.208,-0.5701,-0.7674,2.529,-5.189,-1.33
1772932080363.8079,-0.2058,-0.5695,-0.7706,2.371,-5.093,-1.269
1772932080363.8079,-0.2095,-0.5743,-0.7632,2.791,-5.442,-1.54
1772932080363.8079,-0.2086,-0.5719,-0.7643,2.678,-5.338,-1.759
1772932080363.8079,-0.2097,-0.5726,-0.762,2.914,-5.329,-1.61
1772932080379.379,-0.207,-0.5744,-0.7638,2.958,-5.25,-1.96
1772932080379.379,-0.2115,-0.5738,-0.7655,3.027,-5.39,-1.383
1772932080379.379,-0.2078,-0.5778,-0.7663,3.22,-5.197,-1.575
1772932080395.4746,-0.2086,-0.5762,-0.7632,3.439,-5.626,-1.312
1772932080395.4746,-0.2105,-0.5757,-0.7634,3.255,-5.32,-0.954
1772932080395.4746,-0.2079,-0.5738,-0.7638,3.351,-5.372,-0.945
1772932080395.4746,-0.2098,-0.5739,-0.7667,3.587,-5.154,-0.814
1772932080410.8962,-0.2067,-0.574,-0.769,3.439,-5.495,-0.77
1772932080410.8962,-0.207,-0.575,-0.7676,3.386,-5.119,-0.735
1772932080410.8962,-0.2034,-0.5772,-0.7668,3.229,-5.241,-0.858
1772932080410.8962,-0.2062,-0.5746,-0.7668,3.019,-5.241,-0.814
1772932080410.8962,-0.2077,-0.5739,-0.767,2.949,-5.46,-0.866
1772932080426.9905,-0.2069,-0.5725,-0.7689,3.176,-5.232,-0.927
1772932080426.9905,-0.2037,-0.5709,-0.7675,3.062,-5.486,-1.234
1772932080426.9905,-0.205,-0.5727,-0.7663,3.106,-5.399,-1.295
1772932080426.9905,-0.2027,-0.5714,-0.7704,3.115,-5.128,-1.339
1772932080442.3784,-0.2025,-0.5732,-0.7723,3.08,-5.224,-1.409
1772932080442.3784,-0.2041,-0.5707,-0.7695,3.15,-4.97,-1.225
1772932080442.3784,-0.2083,-0.5722,-0.7684,2.958,-5.451,-1.75
1772932080442.3784,-0.2052,-0.5705,-0.7676,2.704,-4.952,-1.68
1772932080457.8655,-0.2083,-0.5712,-0.7689,3.185,-4.944,-1.531
1772932080457.8655,-0.2055,-0.5734,-0.7699,2.888,-5.084,-1.715
1772932080457.8655,-0.2083,-0.5741,-0.7675,2.8,-5.197,-1.829
1772932080473.059,-0.209,-0.5736,-0.7665,2.914,-5.128,-2.1
1772932080473.059,-0.2062,-0.5757,-0.7696,2.993,-5.014,-1.759
1772932080473.059,-0.208,-0.5773,-0.7688,3.176,-4.874,-1.855
1772932080473.059,-0.2065,-0.5749,-0.767,2.87,-5.101,-1.391
1772932080487.9417,-0.209,-0.5735,-0.7666,3.264,-5.075,-1.146
1772932080487.9417,-0.2087,-0.5744,-0.7695,3.456,-5.206,-1.05
1772932080487.9417,-0.2067,-0.5778,-0.7699,3.745,-5.119,-1.155
1772932080487.9417,-0.207,-0.574,-0.7701,3.421,-5.128,-1.435
1772932080503.4917,-0.204,-0.5721,-0.7691,3.553,-5.215,-1.295
1772932080503.4917,-0.2029,-0.5716,-0.7686,3.596,-5.066,-1.444
1772932080503.4917,-0.2048,-0.5702,-0.7693,3.535,-5.32,-1.864
1772932080503.4917,-0.2047,-0.5724,-0.7677,3.264,-5.189,-1.785
1772932080503.4917,-0.2059,-0.5714,-0.7697,3.194,-5.364,-1.671
1772932080519.4597,-0.2056,-0.5736,-0.7693,3.211,-5.093,-1.619
1772932080519.4597,-0.2067,-0.5755,-0.7676,2.993,-4.9,-1.645
1772932080519.4597,-0.2051,-0.5774,-0.7696,3.001,-5.101,-1.785
1772932080519.4597,-0.2046,-0.5732,-0.7709,3.141,-5.364,-1.584
1772932080534.988,-0.2052,-0.5744,-0.7717,3.036,-5.32,-1.505
1772932080534.988,-0.2022,-0.5755,-0.7689,2.896,-5.066,-1.496
1772932080534.988,-0.2034,-0.5738,-0.7694,3.15,-5.128,-1.706
1772932080551.0222,-0.2061,-0.5755,-0.771,2.817,-5.285,-1.724
1772932080551.0222,-0.2077,-0.5757,-0.7694,3.159,-4.935,-1.811
1772932080551.0222,-0.2112,-0.5763,-0.7693,2.931,-5.084,-1.242
1772932080551.0222,-0.2078,-0.576,-0.7685,3.159,-5.119,-1.12
1772932080566.2817,-0.2061,-0.5735,-0.7686,3.045,-5.154,-1.173
1772932080566.2817,-0.2031,-0.5727,-0.7699,3.089,-5.049,-1.435
1772932080566.2817,-0.2023,-0.5714,-0.7696,3.115,-5.11,-1.689
1772932080566.2817,-0.2053,-0.5724,-0.769,3.229,-5.241,-1.776
1772932080581.865,-0.2058,-0.5718,-0.7694,3.124,-5.32,-1.426
1772932080581.865,-0.2059,-0.5746,-0.766,3.062,-5.215,-1.531
1772932080581.865,-0.2068,-0.5731,-0.766,3.255,-5.32,-1.435
1772932080581.865,-0.2056,-0.5725,-0.7684,3.08,-5.014,-1.636
1772932080581.865,-0.2017,-0.5734,-0.7684,3.351,-5.346,-1.356
1772932080597.8604,-0.2046,-0.5749,-0.7701,3.22,-5.259,-1.715
1772932080597.8604,-0.2035,-0.573,-0.7716,3.141,-5.259,-1.627
1772932080597.8604,-0.2017,-0.5736,-0.7688,3.045,-5.311,-1.89
1772932080597.8604,-0.2016,-0.5749,-0.7681,3.15,-5.224,-1.68
1772932080612.747,-0.2037,-0.5757,-0.7694,3.054,-5.206,-1.584
1772932080612.747,-0.2037,-0.5764,-0.769,2.896,-5.425,-1.627
1772932080612.747,-0.205,-0.575,-0.7696,3.027,-5.154,-1.365
1772932080627.9558,-0.205,-0.5766,-0.7676,2.949,-5.022,-1.181
1772932080627.9558,-0.2045,-0.5791,-0.7696,3.019,-4.987,-1.181
1772932080627.9558,-0.2039,-0.5753,-0.7712,3.264,-5.232,-1.4
1772932080627.9558,-0.2045,-0.5752,-0.7682,3.019,-5.46,-1.304
1772932080643.061,-0.2045,-0.5747,-0.7741,3.054,-5.346,-1.75
1772932080643.061,-0.2077,-0.5765,-0.7713,3.159,-5.241,-1.584
1772932080643.061,-0.2061,-0.5758,-0.7706,3.001,-5.285,-1.654
1772932080643.061,-0.2077,-0.5763,-0.7702,2.94,-5.451,-1.566
1772932080659.0554,-0.2058,-0.5759,-0.7726,2.748,-5.416,-1.391
1772932080659.0554,-0.2059,-0.5727,-0.772,2.59,-5.189,-1.269
1772932080659.0554,-0.2067,-0.5734,-0.7732,2.721,-5.469,-1.304
1772932080659.0554,-0.2061,-0.5755,-0.7736,2.52,-5.478,-1.173
1772932080659.0554,-0.2056,-0.574,-0.7699,2.476,-5.442,-1.129
1772932080675.1301,-0.2067,-0.575,-0.7694,2.275,-5.259,-0.945
1772932080675.1301,-0.2052,-0.5729,-0.769,2.135,-5.303,-1.024
1772932080675.1301,-0.2039,-0.5755,-0.7684,2.091,-5.46,-0.866
1772932080675.1301,-0.2029,-0.5746,-0.771,2.284,-5.425,-1.164
1772932080690.262,-0.2042,-0.5742,-0.7674,2.021,-5.688,-1.356
1772932080690.262,-0.2065,-0.5732,-0.7659,1.864,-5.521,-1.426
1772932080690.262,-0.2045,-0.5744,-0.7652,1.978,-5.582,-1.356
1772932080705.8752,-0.2053,-0.5725,-0.7673,1.829,-5.303,-1.181
1772932080705.8752,-0.2045,-0.5722,-0.7603,1.829,-5.338,-1.015
1772932080705.8752,-0.2018,-0.5714,-0.7656,2.319,-5.661,-1.041
1772932080705.8752,-0.2056,-0.5727,-0.7656,2.607,-5.591,-1.426
1772932080721.6375,-0.2037,-0.5723,-0.767,2.424,-5.731,-1.374
1772932080721.6375,-0.2009,-0.5732,-0.7665,2.459,-5.416,-1.269
1772932080721.6375,-0.203,-0.5695,-0.7673,2.922,-5.504,-1.444
1772932080721.6375,-0.203,-0.5709,-0.767,2.993,-5.67,-1.54
1772932080736.7925,-0.2057,-0.5746,-0.7685,2.494,-5.548,-1.549
1772932080736.7925,-0.206,-0.5743,-0.7673,2.809,-5.442,-1.426
1772932080736.7925,-0.2071,-0.579,-0.7679,2.888,-5.679,-1.391
1772932080736.7925,-0.2034,-0.5755,-0.7676,3.141,-5.609,-1.339
1772932080751.95,-0.2002,-0.5749,-0.7679,3.509,-5.451,-1.33
1772932080751.95,-0.2012,-0.5716,-0.7688,3.421,-5.696,-1.575
1772932080751.95,-0.2,-0.5743,-0.7675,3.596,-5.416,-1.689
1772932080767.8552,-0.2007,-0.5757,-0.7682,3.351,-5.539,-1.741
1772932080767.8552,-0.2024,-0.5747,-0.769,3.246,-5.355,-1.907
1772932080767.8552,-0.2058,-0.5753,-0.7715,3.132,-5.591,-1.593
1772932080767.8552,-0.2089,-0.5738,-0.7706,3.167,-5.407,-1.706
1772932080767.8552,-0.2112,-0.5752,-0.7687,3.01,-5.478,-1.794
1772932080782.9119,-0.2083,-0.5746,-0.7709,2.643,-5.346,-1.706
1772932080782.9119,-0.2083,-0.575,-0.77,2.748,-5.215,-1.514
1772932080782.9119,-0.2092,-0.5754,-0.7705,2.599,-5.39,-1.575
1772932080782.9119,-0.207,-0.575,-0.7663,2.678,-5.442,-1.89
1772932080798.5205,-0.2094,-0.5768,-0.767,2.476,-5.416,-1.391
1772932080798.5205,-0.2036,-0.577,-0.7681,2.572,-5.478,-1.426
1772932080798.5205,-0.2056,-0.5756,-0.7671,2.599,-5.407,-1.627
1772932080798.5205,-0.2025,-0.5755,-0.7684,2.634,-5.346,-1.505
1772932080814.0676,-0.2041,-0.5748,-0.7697,2.564,-5.381,-1.505
1772932080814.0676,-0.2048,-0.5735,-0.7671,2.712,-5.521,-1.339
1772932080814.0676,-0.2069,-0.5742,-0.766,2.888,-5.53,-1.689
1772932080814.0676,-0.2068,-0.5748,-0.7674,3.019,-5.793,-1.347
1772932080829.2036,-0.2076,-0.5747,-0.7682,2.958,-5.355,-1.26
1772932080829.2036,-0.2067,-0.5731,-0.7686,3.019,-5.162,-1.339
1772932080829.2036,-0.2081,-0.5719,-0.7716,3.316,-5.259,-1.199
1772932080844.7344,-0.2089,-0.5694,-0.7709,3.342,-4.97,-1.041
1772932080844.7344,-0.2065,-0.5689,-0.7727,3.386,-4.918,-1.12
1772932080844.7344,-0.205,-0.5699,-0.771,3.185,-5.294,-1.269
1772932080844.7344,-0.2029,-0.5757,-0.775,2.529,-5.364,-1.286
1772932080860.125,-0.2006,-0.5792,-0.7698,2.074,-5.731,-1.785
1772932080860.125,-0.204,-0.5839,-0.7637,1.129,-6.3,-2.17
1772932080860.125,-0.2067,-0.5834,-0.7568,0.586,-6.466,-2.301
1772932080860.125,-0.2083,-0.5813,-0.7566,0.849,-6.702,-2.275
1772932080860.125,-0.2126,-0.5805,-0.758,1.006,-7.009,-2.336
1772932080876.238,-0.2121,-0.5805,-0.7566,1.155,-6.676,-2.109
1772932080876.238,-0.2133,-0.5758,-0.7554,1.479,-6.519,-1.837
1772932080876.238,-0.2144,-0.5661,-0.7617,2.922,-6.23,-1.417
1772932080876.238,-0.2184,-0.5619,-0.7692,4.419,-5.749,-1.435
1772932080891.4995,-0.213,-0.5644,-0.7742,5.591,-5.372,-1.26
1772932080891.4995,-0.2034,-0.5635,-0.7808,5.714,-4.489,-0.787
1772932080891.4995,-0.1968,-0.5753,-0.7848,5.294,-3.981,-0.805
1772932080906.833,-0.1965,-0.5795,-0.7756,4.541,-4.226,-0.044
1772932080906.833,-0.1861,-0.5769,-0.777,3.176,-3.78,0.158
1772932080906.833,-0.1818,-0.5741,-0.7833,2.056,-3.658,-0.07
1772932080906.833,-0.1889,-0.5661,-0.7846,1.234,-4.095,-0.744
1772932080922.378,-0.1913,-0.5683,-0.7774,1.059,-4.034,-1.4
1772932080922.378,-0.1979,-0.5725,-0.7731,0.779,-4.349,-1.951
1772932080922.378,-0.2001,-0.5771,-0.7663,0.385,-4.331,-1.741
1772932080922.378,-0.2063,-0.5801,-0.7657,0.333,-4.314,-1.47
1772932080937.9546,-0.2069,-0.5816,-0.763,-0.07,-4.646,-1.199
1772932080937.9546,-0.2108,-0.5798,-0.7562,-0.131,-5.128,-1.129
1772932080937.9546,-0.2118,-0.5777,-0.7527,0.201,-5.338,-0.98
1772932080937.9546,-0.212,-0.5763,-0.7552,0.849,-5.486,-1.208
1772932080937.9546,-0.2139,-0.5693,-0.7588,1.251,-5.495,-1.312
1772932080953.401,-0.2144,-0.5651,-0.7601,2.354,-5.617,-1.426
1772932080953.401,-0.2176,-0.5636,-0.7649,2.572,-5.854,-1.785
1772932080953.401,-0.2156,-0.5617,-0.7756,2.905,-5.889,-2.328
1772932080953.401,-0.2142,-0.5619,-0.7823,3.246,-6.317,-2.371
1772932080969.3691,-0.2132,-0.5623,-0.7925,2.853,-7.184,-2.634
1772932080969.3691,-0.2126,-0.5638,-0.7966,2.721,-8.015,-3.141
1772932080969.3691,-0.2103,-0.5693,-0.7976,1.715,-9.152,-3.439
1772932080969.3691,-0.2087,-0.5771,-0.7967,0.892,-9.783,-3.684
1772932080984.9478,-0.2064,-0.5841,-0.7863,-0.052,-10.08,-3.946
1772932080984.9478,-0.2022,-0.5916,-0.7811,-0.289,-10.273,-3.579
1772932080984.9478,-0.2017,-0.5899,-0.7763,-0.761,-9.625,-2.966
1772932080999.8372,-0.2026,-0.5903,-0.7767,-0.403,-9.258,-2.249
1772932080999.8372,-0.2024,-0.5854,-0.7752,-0.385,-8.75,-1.785
1772932080999.8372,-0.2005,-0.5776,-0.7715,0.052,-8.461,-1.505
1772932080999.8372,-0.2025,-0.5763,-0.7679,0.858,-8.12,-1.269
1772932081015.1777,-0.2036,-0.5779,-0.7615,1.654,-7.464,-1.321
1772932081015.1777,-0.2041,-0.5771,-0.7558,2.249,-7.438,-1.802
1772932081015.1777,-0.1972,-0.5865,-0.7544,2.791,-6.519,-1.802
1772932081015.1777,-0.1957,-0.5709,-0.7521,2.371,-5.53,-1.304
1772932081031.2373,-0.1926,-0.5678,-0.7474,2.336,-5.329,-1.435
1772932081031.2373,-0.1927,-0.5674,-0.7492,2.231,-4.541,-1.461
1772932081031.2373,-0.1987,-0.5657,-0.7546,2.476,-4.532,-1.698
1772932081031.2373,-0.2072,-0.5649,-0.7584,2.223,-4.261,-1.593
1772932081031.2373,-0.2129,-0.5661,-0.7643,2.126,-4.471,-1.864
1772932081046.4216,-0.2134,-0.5655,-0.7663,2.284,-4.795,-1.907
1772932081046.4216,-0.2149,-0.5627,-0.7708,2.538,-5.171,-2.275
1772932081046.4216,-0.2139,-0.5636,-0.773,2.362,-5.39,-2.345
1772932081062.0342,-0.2133,-0.5621,-0.7758,2.433,-5.723,-2.284
1772932081062.0342,-0.2126,-0.5685,-0.7737,2.161,-6.186,-2.231
1772932081062.0342,-0.2107,-0.5662,-0.7767,2.205,-6.536,-2.152
1772932081062.0342,-0.2069,-0.5659,-0.7735,2.214,-6.466,-2.205
1772932081077.6792,-0.2069,-0.5672,-0.7726,2.555,-6.484,-1.978
1772932081077.6792,-0.2039,-0.5668,-0.769,2.59,-6.834,-1.671
1772932081077.6792,-0.2009,-0.5658,-0.7702,3.019,-6.886,-2.004
1772932081077.6792,-0.1978,-0.5707,-0.767,2.739,-6.772,-1.706
1772932081092.3875,-0.1974,-0.5701,-0.7645,2.783,-7.096,-2.074
1772932081092.3875,-0.1986,-0.5662,-0.7641,2.922,-6.816,-2.118
1772932081092.3875,-0.1995,-0.5663,-0.7603,3.027,-6.239,-2.301
1772932081092.3875,-0.2005,-0.5668,-0.7615,3.299,-5.985,-2.371
1772932081107.8696,-0.2026,-0.5712,-0.7629,3.57,-6.081,-2.257
1772932081107.8696,-0.2062,-0.5743,-0.7644,3.701,-5.924,-2.24
1772932081107.8696,-0.2092,-0.5776,-0.7662,3.579,-5.81,-2.065
1772932081123.1018,-0.2097,-0.5774,-0.766,3.614,-5.093,-1.593
1772932081123.1018,-0.2101,-0.5755,-0.7645,3.649,-5.04,-1.829
1772932081123.1018,-0.212,-0.576,-0.7689,3.71,-4.812,-1.496
1772932081123.1018,-0.2109,-0.575,-0.772,3.561,-4.944,-1.452
1772932081139.1575,-0.2102,-0.5721,-0.7658,3.587,-4.944,-1.278
1772932081139.1575,-0.2111,-0.5728,-0.7669,3.456,-5.093,-1.488
1772932081139.1575,-0.2086,-0.5741,-0.7714,3.351,-5.049,-1.698
1772932081139.1575,-0.2075,-0.576,-0.7684,3.447,-5.136,-1.645
1772932081139.1575,-0.2081,-0.574,-0.7706,3.167,-4.891,-1.575
1772932081154.8623,-0.2097,-0.5749,-0.7724,3.045,-5.084,-1.514
1772932081154.8623,-0.2098,-0.5725,-0.7721,3.089,-4.918,-1.558
1772932081154.8623,-0.2092,-0.5707,-0.7732,3.29,-4.961,-1.654
1772932081154.8623,-0.208,-0.5699,-0.7731,3.115,-4.9,-1.461
1772932081170.8918,-0.2072,-0.5737,-0.7726,3.08,-4.935,-1.304
1772932081170.8918,-0.2065,-0.5732,-0.7738,3.159,-5.04,-1.409
1772932081170.8918,-0.2095,-0.5722,-0.7756,3.132,-4.812,-0.945
1772932081170.8918,-0.2089,-0.5707,-0.7759,2.94,-4.76,-0.814
1772932081186.0469,-0.2083,-0.5719,-0.7768,3.001,-4.603,-0.849
1772932081186.0469,-0.2054,-0.5717,-0.774,3.01,-4.909,-0.787
1772932081186.0469,-0.2044,-0.5758,-0.7773,2.879,-5.014,-0.91
1772932081186.0469,-0.2017,-0.5774,-0.7718,2.695,-4.707,-1.059
1772932081201.9497,-0.2005,-0.5772,-0.7671,2.581,-4.821,-0.998
1772932081201.9497,-0.199,-0.5772,-0.7696,2.406,-4.865,-0.884
1772932081201.9497,-0.2014,-0.5763,-0.7681,2.371,-4.69,-0.892
1772932081217.853,-0.2004,-0.575,-0.7677,2.406,-4.769,-0.823
1772932081217.853,-0.2056,-0.5725,-0.7668,2.721,-4.471,-1.006
1772932081217.853,-0.2055,-0.5748,-0.7682,2.922,-4.576,-1.024
1772932081217.853,-0.2045,-0.573,-0.7672,3.299,-4.261,-1.103
1772932081217.853,-0.205,-0.5719,-0.7688,3.386,-4.506,-1.234
1772932081233.9207,-0.2073,-0.5697,-0.7674,3.456,-4.463,-0.927
1772932081233.9207,-0.2075,-0.5677,-0.7692,3.342,-4.305,-0.735
1772932081233.9207,-0.2066,-0.5665,-0.7725,3.098,-4.576,-0.875
1772932081233.9207,-0.2059,-0.5641,-0.7762,3.246,-4.699,-1.155
1772932081249.5325,-0.2054,-0.5638,-0.779,2.511,-4.76,-1.103
1772932081249.5325,-0.2075,-0.5632,-0.7801,2.362,-5.075,-1.426
1772932081249.5325,-0.2073,-0.5697,-0.7785,2.109,-5.162,-1.724
1772932081249.5325,-0.2067,-0.5707,-0.7784,1.549,-5.119,-1.671
1772932081265.0256,-0.2112,-0.5711,-0.7763,1.409,-4.987,-1.356
1772932081265.0256,-0.2078,-0.5729,-0.7763,1.234,-5.425,-1.514
1772932081265.0256,-0.2049,-0.5727,-0.7721,1.181,-5.145,-1.409
1772932081265.0256,-0.2053,-0.5729,-0.7731,1.076,-5.495,-1.321
1772932081280.2073,-0.2037,-0.5702,-0.7729,0.989,-5.224,-1.137
1772932081280.2073,-0.1992,-0.5714,-0.7724,1.312,-5.031,-1.242
1772932081280.2073,-0.1978,-0.57,-0.7737,1.61,-5.416,-1.146
1772932081295.644,-0.1957,-0.5685,-0.7708,1.881,-5.162,-1.173
1772932081295.644,-0.1944,-0.569,-0.7706,1.951,-5.232,-1.444
1772932081295.644,-0.1942,-0.5703,-0.7757,2.328,-5.136,-1.671
1772932081295.644,-0.1928,-0.5756,-0.7753,2.091,-5.022,-1.47
1772932081295.644,-0.1937,-0.5742,-0.7735,2.144,-4.655,-1.286
1772932081311.1897,-0.2004,-0.5688,-0.7773,2.013,-4.865,-1.312
1772932081311.1897,-0.2036,-0.5673,-0.7763,2.03,-4.883,-1.347
1772932081311.1897,-0.2073,-0.569,-0.7782,1.802,-4.918,-1.488
1772932081311.1897,-0.2075,-0.5707,-0.7761,1.864,-5.005,-1.593
1772932081326.4697,-0.2027,-0.5681,-0.778,1.811,-5.154,-1.741
1772932081326.4697,-0.2039,-0.5705,-0.7758,1.409,-5.101,-1.724
1772932081326.4697,-0.2063,-0.5713,-0.7746,1.164,-5.101,-1.794
1772932081326.4697,-0.2055,-0.5711,-0.774,1.032,-5.101,-1.96
1772932081341.8535,-0.2083,-0.5713,-0.7714,1.041,-4.848,-1.802
1772932081341.8535,-0.2104,-0.5703,-0.7723,1.015,-5.145,-1.881
1772932081341.8535,-0.2102,-0.5711,-0.7704,1.251,-5.311,-1.846
1772932081341.8535,-0.2106,-0.5725,-0.7696,1.129,-5.303,-1.671
1772932081357.8525,-0.2102,-0.5741,-0.7694,0.726,-5.241,-1.312
1772932081357.8525,-0.2131,-0.5736,-0.7678,0.7,-5.486,-1.251
1772932081357.8525,-0.2119,-0.5751,-0.7691,0.525,-5.259,-0.954
1772932081372.983,-0.2125,-0.5726,-0.7668,0.324,-5.434,-0.674
1772932081372.983,-0.2098,-0.5709,-0.7695,0.7,-5.539,-0.542
1772932081372.983,-0.2045,-0.5729,-0.7688,0.411,-5.609,-1.111
1772932081372.983,-0.2041,-0.5696,-0.7681,0.464,-5.539,-0.866
1772932081389.1096,-0.2012,-0.5667,-0.7682,0.674,-5.469,-0.971
1772932081389.1096,-0.1997,-0.5672,-0.7662,0.691,-5.626,-1.295
1772932081389.1096,-0.2009,-0.5674,-0.7677,1.26,-5.434,-1.698
1772932081389.1096,-0.2014,-0.5674,-0.77,1.312,-5.758,-1.426
1772932081389.1096,-0.2004,-0.5677,-0.769,1.356,-5.836,-1.68
1772932081404.5002,-0.2001,-0.5689,-0.7705,1.33,-5.652,-1.768
1772932081404.5002,-0.2018,-0.5645,-0.7703,1.488,-5.836,-1.732
1772932081404.5002,-0.2022,-0.567,-0.7718,1.627,-5.661,-1.47
1772932081404.5002,-0.2019,-0.5665,-0.7745,1.505,-6.055,-1.54
1772932081420.0842,-0.2064,-0.5683,-0.772,1.741,-5.652,-1.522
1772932081420.0842,-0.207,-0.5673,-0.7752,1.671,-5.827,-1.383
1772932081420.0842,-0.2097,-0.5684,-0.7763,1.558,-5.845,-1.365
1772932081420.0842,-0.2078,-0.5691,-0.7781,1.566,-5.81,-1.146
1772932081435.6973,-0.2112,-0.5675,-0.7738,1.636,-5.854,-1.286
1772932081435.6973,-0.2119,-0.5662,-0.7758,1.488,-5.941,-1.304
1772932081435.6973,-0.2085,-0.5683,-0.7755,1.689,-5.871,-1.488
1772932081451.8208,-0.2095,-0.5668,-0.7781,1.426,-6.003,-1.619
1772932081451.8208,-0.2113,-0.5682,-0.776,1.339,-6.247,-1.426
