Time_ms,ax,ay,az,gx,gy,gz
1772976573759.2087,-0.9665,-0.1248,-0.098,3.308,-5.6,-1.076
1772976573759.2087,-0.9678,-0.1249,-0.098,3.255,-5.679,-1.006
1772976573759.2087,-0.9706,-0.125,-0.0971,3.185,-5.53,-1.094
1772976573759.2087,-0.9687,-0.1236,-0.0953,3.299,-5.346,-1.015
1772976573759.2087,-0.9684,-0.1259,-0.0968,3.167,-5.407,-0.796
1772976573759.2087,-0.9712,-0.1249,-0.0994,3.15,-5.268,-0.84
1772976573759.2087,-0.971,-0.125,-0.0992,3.08,-5.075,-0.989
1772976573759.2087,-0.9701,-0.1245,-0.1012,3.237,-4.961,-0.787
1772976573759.2087,-0.9693,-0.1232,-0.0992,3.281,-5.232,-1.076
1772976573759.2087,-0.9708,-0.1237,-0.1013,3.019,-5.075,-0.954
1772976573759.2087,-0.9716,-0.1216,-0.1042,3.159,-4.786,-0.945
1772976573759.2087,-0.9726,-0.1221,-0.1019,2.861,-4.83,-0.796
1772976573759.2087,-0.9706,-0.1202,-0.1022,2.966,-5.128,-0.884
1772976573774.7273,-0.9694,-0.1212,-0.1034,2.8,-5.049,-1.103
1772976573774.7273,-0.9719,-0.1225,-0.1032,2.73,-5.049,-1.164
1772976573774.7273,-0.9721,-0.1212,-0.1025,2.922,-5.162,-1.137
1772976573774.7273,-0.9722,-0.122,-0.1047,2.966,-4.839,-1.242
1772976573774.7273,-0.9726,-0.1217,-0.1055,2.922,-4.83,-1.295
1772976573774.7273,-0.9726,-0.1221,-0.1013,2.844,-5.005,-1.242
1772976573774.7273,-0.9723,-0.1238,-0.1025,2.861,-4.918,-1.514
1772976573774.7273,-0.9745,-0.1231,-0.1019,2.765,-4.874,-1.496
1772976573774.7273,-0.9749,-0.1246,-0.0997,2.783,-4.952,-1.365
1772976573774.7273,-0.9742,-0.1258,-0.0967,2.643,-4.716,-1.89
1772976573774.7273,-0.9726,-0.1263,-0.0975,2.538,-4.821,-1.951
1772976573774.7273,-0.9749,-0.1245,-0.0944,2.87,-4.638,-1.986
1772976573790.2554,-0.9742,-0.1254,-0.0951,3.01,-4.393,-1.811
1772976573790.2554,-0.9748,-0.1266,-0.0991,3.045,-4.445,-1.846
1772976573790.2554,-0.9751,-0.1261,-0.0972,2.905,-4.524,-2.021
1772976573790.2554,-0.9737,-0.128,-0.0984,2.748,-4.655,-2.1
1772976573790.2554,-0.9765,-0.1274,-0.0972,2.896,-4.655,-2.328
1772976573790.2554,-0.9764,-0.1265,-0.1002,2.958,-4.594,-2.188
1772976573790.2554,-0.9744,-0.1267,-0.0991,3.045,-4.471,-2.301
1772976573790.2554,-0.975,-0.1266,-0.1,3.124,-4.497,-2.292
1772976573790.2554,-0.9761,-0.1283,-0.0989,2.975,-4.401,-2.214
1772976573790.2554,-0.9741,-0.1284,-0.1,2.853,-4.419,-2.17
1772976573790.2554,-0.9758,-0.1283,-0.1013,2.914,-4.646,-2.389
1772976573790.2554,-0.9778,-0.1269,-0.1017,3.019,-4.848,-2.441
1772976573790.2554,-0.9756,-0.1297,-0.1011,3.106,-4.489,-2.476
1772976573805.7786,-0.9772,-0.1304,-0.0997,2.993,-4.638,-2.555
1772976573805.7786,-0.977,-0.1316,-0.1025,2.791,-4.891,-2.485
1772976573805.7786,-0.9776,-0.1285,-0.1006,2.905,-4.664,-2.599
1772976573805.7786,-0.9756,-0.1326,-0.1024,3.001,-4.611,-2.555
1772976573805.7786,-0.9786,-0.1292,-0.1013,2.826,-4.699,-2.599
1772976573805.7786,-0.979,-0.1299,-0.1022,2.853,-4.961,-2.459
1772976573805.7786,-0.9782,-0.1291,-0.1001,3.036,-4.821,-2.59
1772976573805.7786,-0.9786,-0.1307,-0.1019,2.949,-4.9,-2.38
1772976573805.7786,-0.9795,-0.1307,-0.1015,2.712,-4.848,-2.538
1772976573805.7786,-0.9793,-0.1307,-0.1022,2.949,-5.022,-2.476
1772976573805.7786,-0.9783,-0.1302,-0.1011,2.712,-5.031,-2.223
1772976573805.7786,-0.9806,-0.1297,-0.1012,2.555,-4.9,-2.266
1772976573805.7786,-0.9811,-0.1273,-0.1013,2.52,-5.171,-2.126
1772976573820.7993,-0.9844,-0.1282,-0.1003,2.467,-4.926,-2.1
1772976573820.7993,-0.9848,-0.1307,-0.1013,2.397,-4.935,-2.126
1772976573820.7993,-0.9855,-0.1305,-0.1015,2.476,-4.891,-2.135
1772976573820.7993,-0.9843,-0.1282,-0.1027,2.389,-4.865,-1.698
1772976573820.7993,-0.9837,-0.1268,-0.0996,2.669,-4.935,-1.925
1772976573820.7993,-0.9846,-0.1309,-0.1039,2.625,-5.075,-1.995
1772976573820.7993,-0.9845,-0.1311,-0.1067,2.345,-4.926,-1.942
1772976573820.7993,-0.9844,-0.1297,-0.1035,2.389,-5.022,-1.802
1772976573820.7993,-0.9842,-0.1292,-0.1041,2.634,-5.04,-1.864
1772976573820.7993,-0.9842,-0.1284,-0.1069,2.529,-4.891,-1.925
1772976573820.7993,-0.9839,-0.1299,-0.1086,2.529,-4.97,-1.776
1772976573820.7993,-0.9837,-0.1305,-0.1042,2.529,-4.961,-1.881
1772976573836.8376,-0.9836,-0.127,-0.1051,2.634,-5.145,-1.934
1772976573836.8376,-0.9819,-0.1305,-0.1028,2.319,-4.856,-1.899
1772976573836.8376,-0.9844,-0.1296,-0.1063,2.433,-5.049,-1.68
1772976573836.8376,-0.9817,-0.1305,-0.1084,2.459,-5.285,-1.82
1772976573836.8376,-0.9849,-0.1305,-0.108,2.433,-5.425,-1.899
1772976573836.8376,-0.9833,-0.1308,-0.1063,2.188,-5.355,-1.82
1772976573836.8376,-0.9831,-0.1299,-0.1051,2.424,-5.162,-1.698
1772976573836.8376,-0.9823,-0.1304,-0.1025,2.625,-5.372,-1.671
1772976573836.8376,-0.985,-0.1294,-0.1017,2.406,-5.346,-1.776
1772976573836.8376,-0.9847,-0.1312,-0.1032,2.695,-5.224,-1.899
1772976573836.8376,-0.9858,-0.1313,-0.1016,2.739,-5.268,-1.776
1772976573836.8376,-0.9862,-0.1305,-0.105,2.502,-5.469,-1.4
1772976573836.8376,-0.9848,-0.1301,-0.1049,2.476,-5.451,-1.514
1772976573852.8552,-0.9849,-0.1304,-0.1049,2.397,-5.154,-1.601
1772976573852.8552,-0.9859,-0.1321,-0.1054,2.52,-5.093,-1.435
1772976573852.8552,-0.9878,-0.1323,-0.1058,2.643,-5.276,-1.794
1772976573852.8552,-0.9866,-0.1296,-0.1063,2.599,-5.189,-1.68
1772976573852.8552,-0.9853,-0.13,-0.1067,2.783,-5.145,-1.61
1772976573852.8552,-0.9868,-0.1328,-0.1054,2.704,-5.206,-1.663
1772976573852.8552,-0.9854,-0.1324,-0.1047,2.712,-5.303,-1.75
1772976573852.8552,-0.9843,-0.1323,-0.1061,3.027,-5.311,-1.715
1772976573852.8552,-0.9828,-0.1329,-0.1074,2.984,-5.224,-1.549
1772976573852.8552,-0.9829,-0.1338,-0.1069,3.045,-5.451,-1.479
1772976573852.8552,-0.9826,-0.134,-0.1078,3.115,-5.635,-1.671
1772976573852.8552,-0.981,-0.1352,-0.1101,3.194,-5.442,-1.663
1772976573852.8552,-0.9814,-0.1371,-0.106,3.229,-5.626,-1.776
1772976573868.649,-0.9798,-0.1341,-0.1049,3.299,-5.889,-1.584
1772976573868.649,-0.9777,-0.1344,-0.1067,3.36,-5.976,-1.312
1772976573868.649,-0.9795,-0.1328,-0.1069,3.377,-5.793,-1.173
1772976573868.649,-0.9795,-0.1308,-0.1028,3.465,-5.705,-1.33
1772976573868.649,-0.979,-0.1313,-0.1057,3.631,-5.897,-1.496
1772976573868.649,-0.9758,-0.1283,-0.1057,3.605,-5.968,-1.383
1772976573868.649,-0.9771,-0.132,-0.103,3.658,-6.151,-1.601
1772976573868.649,-0.9768,-0.1285,-0.1017,3.885,-5.994,-1.488
1772976573868.649,-0.974,-0.1282,-0.1016,3.701,-6.213,-1.584
1772976573868.649,-0.9751,-0.1277,-0.0989,3.841,-5.985,-1.409
1772976573868.649,-0.9753,-0.1273,-0.1034,3.719,-6.116,-1.435
1772976573868.649,-0.9751,-0.1276,-0.1004,3.71,-5.994,-1.409
1772976573883.9668,-0.9755,-0.1283,-0.1024,3.579,-5.758,-1.549
1772976573883.9668,-0.9762,-0.1263,-0.1055,3.938,-5.836,-1.409
1772976573883.9668,-0.9747,-0.127,-0.1032,3.973,-5.801,-1.269
1772976573883.9668,-0.975,-0.1248,-0.1043,3.85,-5.364,-1.356
1772976573883.9668,-0.9752,-0.1264,-0.1053,3.973,-5.591,-1.531
1772976573883.9668,-0.9787,-0.125,-0.1046,3.806,-5.469,-1.496
1772976573883.9668,-0.977,-0.1241,-0.1051,3.824,-5.372,-1.435
1772976573883.9668,-0.9759,-0.1224,-0.1028,3.789,-5.32,-1.496
1772976573883.9668,-0.9775,-0.1235,-0.1015,3.763,-4.926,-1.601
1772976573883.9668,-0.9784,-0.1202,-0.1036,3.911,-5.364,-1.636
1772976573883.9668,-0.9778,-0.1201,-0.1029,3.841,-5.276,-1.444
1772976573883.9668,-0.9792,-0.1208,-0.1036,3.771,-5.128,-1.286
1772976573883.9668,-0.979,-0.1204,-0.1024,3.754,-5.136,-1.505
1772976573899.03,-0.9781,-0.1214,-0.1028,3.666,-4.952,-1.654
1772976573899.03,-0.9792,-0.1204,-0.1031,3.754,-4.996,-1.558
1772976573899.03,-0.978,-0.1188,-0.1019,3.395,-5.066,-1.47
1772976573899.03,-0.9809,-0.1201,-0.1023,3.553,-5.049,-1.549
1772976573899.03,-0.9788,-0.1181,-0.1027,3.369,-5.145,-1.558
1772976573899.03,-0.9788,-0.1181,-0.1055,3.658,-4.961,-1.663
1772976573899.03,-0.9782,-0.1202,-0.1053,3.631,-4.83,-1.75
1772976573899.03,-0.9775,-0.1206,-0.1048,3.447,-4.742,-1.627
1772976573899.03,-0.9788,-0.1205,-0.1006,3.526,-4.515,-1.663
1772976573899.03,-0.9798,-0.1177,-0.1032,3.456,-4.655,-1.837
1772976573899.03,-0.9784,-0.1199,-0.1035,3.465,-4.742,-2.047
1772976573899.03,-0.979,-0.1214,-0.1018,3.482,-4.681,-2.161
1772976573914.5806,-0.9769,-0.1207,-0.1032,3.553,-4.629,-1.82
1772976573914.5806,-0.9777,-0.1213,-0.1025,3.5,-4.384,-1.54
1772976573914.5806,-0.9788,-0.1224,-0.1016,3.474,-4.384,-1.593
1772976573914.5806,-0.9776,-0.1238,-0.1035,3.71,-4.734,-1.715
1772976573914.5806,-0.9759,-0.1233,-0.1013,3.439,-4.436,-1.811
1772976573914.5806,-0.9785,-0.1231,-0.102,3.272,-4.463,-2.004
1772976573914.5806,-0.9778,-0.1235,-0.1019,3.447,-4.69,-1.873
1772976573914.5806,-0.9786,-0.1232,-0.1025,3.413,-4.725,-1.951
1772976573914.5806,-0.9789,-0.1261,-0.1036,3.255,-4.55,-1.846
1772976573914.5806,-0.9809,-0.1227,-0.1001,3.377,-4.76,-2.1
1772976573914.5806,-0.9803,-0.1253,-0.1,3.377,-4.629,-2.083
1772976573914.5806,-0.9806,-0.1249,-0.1038,3.264,-4.27,-2.126
1772976573914.5806,-0.9797,-0.1241,-0.1041,3.299,-4.489,-2.013
1772976573931.0032,-0.9818,-0.1271,-0.1042,3.377,-4.638,-2.214
1772976573931.0032,-0.9786,-0.1248,-0.1042,3.43,-4.384,-2.03
1772976573931.0032,-0.9805,-0.1285,-0.1045,3.404,-4.454,-1.978
1772976573931.0032,-0.9832,-0.1296,-0.1037,3.421,-4.305,-2.144
1772976573931.0032,-0.9811,-0.1297,-0.1067,3.106,-4.349,-1.951
1772976573931.0032,-0.9839,-0.1127,-0.1166,3.237,-4.524,-1.873
1772976573931.0032,-0.9824,-0.1288,-0.0958,4.322,-4.48,-2.196
1772976573931.0032,-0.9844,-0.1327,-0.1066,3.833,-4.27,-2.109
1772976573931.0032,-0.9831,-0.1359,-0.11,3.491,-4.419,-2.056
1772976573931.0032,-0.9833,-0.1327,-0.1091,3.377,-4.48,-2.065
1772976573931.0032,-0.9808,-0.1305,-0.109,3.386,-4.218,-1.724
1772976573931.0032,-0.9826,-0.1307,-0.1066,3.071,-4.401,-1.864
1772976573931.0032,-0.9839,-0.1326,-0.1074,3.141,-4.576,-1.715
1772976573946.2434,-0.9828,-0.1318,-0.1076,3.141,-4.226,-1.75
1772976573946.2434,-0.9805,-0.1305,-0.1064,3.08,-4.506,-1.645
1772976573946.2434,-0.9809,-0.1299,-0.1053,3.089,-4.629,-1.663
1772976573946.2434,-0.9801,-0.1313,-0.1097,3.027,-4.821,-1.374
1772976573946.2434,-0.9804,-0.1307,-0.1069,3.01,-4.428,-1.47
1772976573946.2434,-0.9806,-0.1312,-0.1067,3.062,-4.638,-1.593
1772976573946.2434,-0.9794,-0.1304,-0.1076,2.835,-4.839,-1.601
1772976573946.2434,-0.9797,-0.1311,-0.1057,2.931,-4.769,-1.356
1772976573946.2434,-0.979,-0.1298,-0.1077,3.071,-4.673,-1.33
1772976573946.2434,-0.9773,-0.1315,-0.1065,3.141,-4.821,-1.619
1772976573946.2434,-0.9784,-0.1291,-0.1052,3.124,-4.996,-1.496
1772976573946.2434,-0.9771,-0.1291,-0.108,3.167,-4.918,-1.242
1772976573946.2434,-0.9782,-0.1297,-0.1064,2.879,-5.18,-1.085
1772976573961.4858,-0.9748,-0.1313,-0.1077,3.115,-4.97,-1.391
1772976573961.4858,-0.9744,-0.1312,-0.1071,3.237,-5.084,-1.339
1772976573961.4858,-0.977,-0.1288,-0.1055,3.272,-5.128,-1.383
1772976573961.4858,-0.9749,-0.1313,-0.1062,3.264,-5.18,-1.383
1772976573961.4858,-0.9748,-0.134,-0.1058,3.185,-4.874,-1.164
1772976573961.4858,-0.9741,-0.1326,-0.103,3.08,-5.066,-1.155
1772976573961.4858,-0.9748,-0.1327,-0.107,3.43,-5.355,-1.242
1772976573961.4858,-0.9711,-0.1339,-0.1041,3.439,-5.513,-1.286
1772976573961.4858,-0.9726,-0.1319,-0.0996,3.281,-5.285,-1.347
1772976573961.4858,-0.9703,-0.1332,-0.102,3.386,-5.434,-1.076
1772976573961.4858,-0.97,-0.1312,-0.1047,3.281,-5.53,-1.12
1772976573961.4858,-0.9689,-0.1335,-0.1003,3.474,-5.504,-1.199
1772976573977.519,-0.9692,-0.1318,-0.1025,3.771,-5.425,-1.067
1772976573977.519,-0.9687,-0.1357,-0.1019,3.658,-5.582,-1.26
1772976573977.519,-0.9714,-0.1327,-0.101,3.675,-5.652,-1.242
1772976573977.519,-0.9712,-0.1321,-0.1013,3.553,-5.434,-0.936
1772976573977.519,-0.9698,-0.1321,-0.1017,3.579,-5.425,-0.901
1772976573977.519,-0.9697,-0.131,-0.0989,3.658,-5.425,-1.059
1772976573977.519,-0.9684,-0.1326,-0.1014,3.824,-5.294,-1.076
1772976573977.519,-0.9676,-0.1325,-0.1013,3.824,-5.609,-1.286
1772976573977.519,-0.9653,-0.1301,-0.1008,3.78,-5.626,-1.12
1772976573977.519,-0.9668,-0.1287,-0.1024,3.841,-5.521,-1.111
1772976573977.519,-0.9701,-0.1286,-0.1035,3.911,-5.434,-0.954
1772976573977.519,-0.9684,-0.1271,-0.1033,3.833,-5.478,-0.98
1772976573977.519,-0.9681,-0.1272,-0.1046,3.99,-5.232,-0.875
1772976573993.1797,-0.9706,-0.129,-0.1042,4.139,-5.495,-0.98
1772976573993.1797,-0.9678,-0.1271,-0.1051,4.174,-5.442,-1.059
1772976573993.1797,-0.9698,-0.1262,-0.1023,3.85,-5.189,-1.181
1772976573993.1797,-0.9699,-0.1253,-0.1063,3.736,-5.442,-1.146
1772976573993.1797,-0.9684,-0.1235,-0.1046,3.824,-5.285,-1.129
1772976573993.1797,-0.9679,-0.1241,-0.1048,3.789,-5.416,-1.103
1772976573993.1797,-0.9681,-0.1224,-0.1074,3.981,-5.425,-1.173
1772976573993.1797,-0.9695,-0.1217,-0.1051,3.771,-5.513,-1.242
1772976573993.1797,-0.9695,-0.1222,-0.1074,3.623,-5.058,-0.919
1772976573993.1797,-0.969,-0.1224,-0.1085,3.596,-5.434,-1.146
1772976573993.1797,-0.9716,-0.1218,-0.1047,3.78,-5.478,-1.383
1772976573993.1797,-0.9703,-0.118,-0.108,3.728,-5.442,-1.575
1772976574008.3928,-0.9707,-0.1194,-0.1091,3.701,-5.119,-1.522
1772976574008.3928,-0.9711,-0.118,-0.1071,3.5,-5.11,-1.61
1772976574008.3928,-0.9715,-0.1169,-0.1076,3.413,-5.206,-1.496
1772976574008.3928,-0.9717,-0.1193,-0.1074,3.395,-4.9,-1.768
1772976574008.3928,-0.9694,-0.1166,-0.1106,3.614,-4.996,-1.96
1772976574008.3928,-0.9721,-0.1145,-0.1089,3.229,-5.049,-1.96
1772976574008.3928,-0.9727,-0.1184,-0.1086,3.194,-5.014,-2.301
1772976574008.3928,-0.9729,-0.1178,-0.1088,3.106,-4.795,-2.091
1772976574008.3928,-0.9709,-0.1186,-0.1105,3.106,-4.979,-2.021
1772976574008.3928,-0.972,-0.1184,-0.1094,2.993,-5.005,-1.881
1772976574008.3928,-0.9736,-0.1175,-0.1087,2.922,-4.76,-2.362
1772976574008.3928,-0.974,-0.1191,-0.1075,2.905,-4.987,-2.704
1772976574008.3928,-0.9725,-0.1177,-0.1069,2.835,-4.734,-2.476
1772976574024.893,-0.9765,-0.1193,-0.1092,2.546,-4.734,-2.529
1772976574024.893,-0.9739,-0.1194,-0.1078,2.467,-4.865,-2.564
1772976574024.893,-0.9757,-0.1215,-0.1107,2.599,-4.83,-2.424
1772976574024.893,-0.9751,-0.1215,-0.1095,2.529,-4.436,-2.389
1772976574024.893,-0.9733,-0.1211,-0.1099,2.485,-4.428,-2.275
1772976574024.893,-0.9725,-0.121,-0.108,2.555,-4.769,-2.389
1772976574024.893,-0.9722,-0.1219,-0.1079,2.441,-4.55,-2.196
1772976574024.893,-0.9757,-0.1238,-0.107,2.292,-4.436,-2.424
1772976574024.893,-0.9776,-0.1254,-0.1078,2.328,-4.611,-2.599
1772976574024.893,-0.9769,-0.1243,-0.1049,2.266,-4.629,-2.415
1772976574024.893,-0.9775,-0.1274,-0.1074,2.231,-4.48,-2.634
1772976574024.893,-0.9789,-0.1286,-0.1038,2.152,-4.375,-2.616
1772976574024.893,-0.9782,-0.1312,-0.1032,2.292,-4.314,-2.441
1772976574040.4395,-0.9787,-0.1312,-0.1064,2.275,-3.868,-2.179
1772976574040.4395,-0.9801,-0.1325,-0.1047,2.231,-3.92,-2.257
1772976574040.4395,-0.9789,-0.1337,-0.1057,2.214,-4.051,-2.345
1772976574040.4395,-0.9814,-0.1354,-0.1064,2.135,-3.999,-2.24
1772976574040.4395,-0.98,-0.136,-0.1071,2.179,-3.973,-2.047
1772976574040.4395,-0.9821,-0.1355,-0.1103,2.284,-4.077,-1.759
1772976574040.4395,-0.9832,-0.1374,-0.1086,2.406,-3.964,-1.802
1772976574040.4395,-0.9798,-0.1365,-0.108,2.223,-3.938,-1.899
1772976574040.4395,-0.9812,-0.1355,-0.1115,2.249,-3.885,-1.811
1772976574040.4395,-0.983,-0.1346,-0.1081,2.275,-4.296,-1.864
1772976574040.4395,-0.983,-0.1355,-0.1093,2.362,-4.349,-1.558
1772976574040.4395,-0.9826,-0.1357,-0.1091,2.196,-4.314,-1.663
1772976574040.4395,-0.9823,-0.1362,-0.1097,2.231,-4.585,-1.417
1772976574056.01,-0.9825,-0.1364,-0.1103,2.415,-4.375,-1.488
1772976574056.01,-0.9836,-0.1362,-0.1089,2.266,-4.261,-1.522
1772976574056.01,-0.9848,-0.1352,-0.1067,2.292,-4.428,-1.339
1772976574056.01,-0.987,-0.1358,-0.1072,2.31,-4.428,-1.593
1772976574056.01,-0.985,-0.1355,-0.1103,2.284,-4.331,-1.356
1772976574056.01,-0.9846,-0.1364,-0.1096,2.459,-4.532,-1.242
1772976574056.01,-0.9865,-0.1333,-0.1097,2.678,-4.515,-1.26
1772976574056.01,-0.9872,-0.1352,-0.1101,2.712,-4.515,-1.286
1772976574056.01,-0.9875,-0.1354,-0.1108,2.712,-4.594,-1.435
1772976574056.01,-0.9858,-0.134,-0.11,2.87,-4.742,-1.383
1772976574056.01,-0.9888,-0.1348,-0.1089,2.931,-4.751,-1.365
1772976574056.01,-0.9869,-0.1338,-0.1118,3.036,-4.725,-1.208
1772976574056.01,-0.9888,-0.1338,-0.1108,3.15,-4.996,-1.374
1772976574071.8992,-0.9877,-0.1353,-0.1111,3.211,-5.075,-1.435
1772976574071.8992,-0.9894,-0.1334,-0.1107,3.106,-5.101,-1.549
1772976574071.8992,-0.9886,-0.133,-0.1096,3.237,-5.259,-1.391
1772976574071.8992,-0.9873,-0.1329,-0.1059,3.369,-5.215,-1.461
1772976574071.8992,-0.9871,-0.1322,-0.1089,3.439,-5.32,-1.286
1772976574071.8992,-0.9849,-0.1332,-0.1096,3.587,-5.285,-1.514
1772976574071.8992,-0.9871,-0.1341,-0.1036,3.465,-5.215,-1.627
1772976574071.8992,-0.9841,-0.1322,-0.106,3.465,-5.425,-1.452
1772976574071.8992,-0.9819,-0.1313,-0.1072,3.701,-5.688,-1.426
1772976574071.8992,-0.9833,-0.1339,-0.1058,3.728,-5.521,-1.339
1772976574071.8992,-0.9807,-0.1319,-0.1051,3.771,-5.407,-1.732
1772976574071.8992,-0.9801,-0.1323,-0.1087,3.763,-5.46,-1.663
1772976574088.0037,-0.9778,-0.1309,-0.1032,3.841,-5.451,-1.654
1772976574088.0037,-0.979,-0.1297,-0.1057,3.78,-5.478,-1.802
1772976574088.0037,-0.9779,-0.1286,-0.1047,3.973,-5.548,-1.846
1772976574088.0037,-0.9772,-0.1292,-0.1054,3.902,-5.469,-1.636
1772976574088.0037,-0.9775,-0.1274,-0.105,3.824,-5.548,-1.768
1772976574088.0037,-0.9772,-0.1276,-0.1057,3.85,-5.451,-1.732
1772976574088.0037,-0.9748,-0.1285,-0.1033,3.833,-5.469,-1.768
1772976574088.0037,-0.9737,-0.1255,-0.1034,3.797,-5.39,-1.802
1772976574088.0037,-0.9733,-0.1252,-0.1046,3.771,-5.259,-1.916
1772976574088.0037,-0.972,-0.1249,-0.1047,3.701,-5.355,-2.126
1772976574088.0037,-0.9728,-0.1244,-0.1042,3.675,-5.128,-2.135
1772976574088.0037,-0.9734,-0.1231,-0.1074,3.745,-5.128,-2.284
1772976574088.0037,-0.9724,-0.124,-0.1075,3.684,-5.241,-2.205
1772976574103.816,-0.9708,-0.1227,-0.1065,3.5,-5.154,-2.152
1772976574103.816,-0.9717,-0.122,-0.1082,3.64,-5.215,-2.091
1772976574103.816,-0.9726,-0.1216,-0.1067,3.841,-5.25,-2.205
1772976574103.816,-0.9716,-0.1237,-0.107,3.64,-5.066,-2.45
1772976574103.816,-0.9715,-0.1212,-0.1054,3.281,-4.821,-2.371
1772976574103.816,-0.9725,-0.121,-0.1049,3.272,-4.883,-2.441
1772976574103.816,-0.9716,-0.1205,-0.1059,3.482,-5.303,-2.31
1772976574103.816,-0.9724,-0.123,-0.1047,3.29,-4.839,-2.459
1772976574103.816,-0.9715,-0.1243,-0.1098,2.888,-4.594,-2.555
1772976574103.816,-0.973,-0.1227,-0.1086,3.036,-4.716,-2.538
1772976574103.816,-0.9719,-0.1221,-0.1067,3.054,-4.673,-2.406
1772976574103.816,-0.9715,-0.1236,-0.1078,3.281,-4.821,-2.345
1772976574103.816,-0.9732,-0.1224,-0.1067,2.984,-4.559,-2.424
1772976574119.338,-0.9698,-0.1222,-0.1089,2.879,-4.594,-2.231
1772976574119.338,-0.972,-0.1251,-0.1075,2.993,-4.532,-2.38
1772976574119.338,-0.9709,-0.1252,-0.1076,2.844,-4.655,-2.275
1772976574119.338,-0.9719,-0.1236,-0.1072,2.809,-4.401,-2.397
1772976574119.338,-0.9712,-0.1241,-0.1057,2.888,-4.62,-2.152
1772976574119.338,-0.9721,-0.1255,-0.1082,2.66,-4.655,-2.074
1772976574119.338,-0.97,-0.1255,-0.1086,2.607,-4.532,-1.978
1772976574119.338,-0.9753,-0.1275,-0.1082,2.809,-4.419,-1.986
1772976574119.338,-0.9751,-0.125,-0.1085,2.791,-4.76,-2.135
1772976574119.338,-0.9752,-0.1247,-0.1084,2.739,-4.83,-2.065
1772976574119.338,-0.9753,-0.1255,-0.1088,2.52,-4.567,-2.1
1772976574119.338,-0.9781,-0.1258,-0.1114,2.336,-4.532,-2.021
1772976574119.338,-0.9764,-0.1266,-0.1112,2.31,-4.646,-2.047
1772976574134.825,-0.977,-0.1269,-0.1086,2.31,-4.646,-2.17
1772976574134.825,-0.9787,-0.1274,-0.1096,2.31,-4.786,-2.118
1772976574134.825,-0.9771,-0.1276,-0.1097,2.292,-4.751,-2.013
1772976574134.825,-0.9788,-0.1288,-0.1113,2.275,-4.874,-1.864
1772976574134.825,-0.9811,-0.1296,-0.1096,2.389,-4.716,-1.776
1772976574134.825,-0.9814,-0.1291,-0.1095,2.599,-4.524,-2.047
1772976574134.825,-0.9792,-0.1312,-0.1088,2.572,-4.655,-1.986
1772976574134.825,-0.9808,-0.1331,-0.1067,2.433,-4.629,-1.881
1772976574134.825,-0.9765,-0.1313,-0.1093,2.45,-4.918,-1.899
1772976574134.825,-0.978,-0.1318,-0.1072,2.634,-5.101,-1.82
1772976574134.825,-0.9799,-0.1335,-0.1105,2.835,-4.69,-1.741
1772976574134.825,-0.98,-0.1344,-0.1103,2.905,-4.699,-2.144
1772976574150.5205,-0.9789,-0.134,-0.11,2.853,-4.856,-1.829
1772976574150.5205,-0.9816,-0.1347,-0.1099,2.888,-4.751,-1.698
1772976574150.5205,-0.9846,-0.1348,-0.1078,3.098,-4.909,-1.75
1772976574150.5205,-0.9803,-0.1366,-0.1107,3.089,-5.005,-1.732
1772976574150.5205,-0.9833,-0.1362,-0.108,3.106,-4.926,-1.837
1772976574150.5205,-0.9844,-0.1367,-0.1082,2.844,-5.031,-1.942
1772976574150.5205,-0.9842,-0.1349,-0.1089,3.159,-5.241,-1.627
1772976574150.5205,-0.9851,-0.1359,-0.1066,3.482,-5.154,-1.75
1772976574150.5205,-0.9828,-0.1374,-0.1087,3.255,-4.996,-1.785
1772976574150.5205,-0.9843,-0.1361,-0.1083,3.316,-5.04,-1.706
1772976574150.5205,-0.9834,-0.1364,-0.1072,3.447,-4.97,-1.645
1772976574150.5205,-0.9842,-0.134,-0.11,3.456,-4.944,-1.531
1772976574150.5205,-0.9826,-0.1312,-0.1101,3.57,-5.058,-1.54
1772976574166.556,-0.9835,-0.1327,-0.1108,3.395,-5.136,-1.645
1772976574166.556,-0.9834,-0.1352,-0.1093,3.194,-4.944,-1.558
1772976574166.556,-0.9814,-0.1326,-0.113,3.395,-5.276,-1.47
1772976574166.556,-0.9837,-0.1302,-0.1113,3.447,-5.425,-1.356
1772976574166.556,-0.9834,-0.1305,-0.1119,3.719,-5.504,-1.33
1772976574166.556,-0.985,-0.1281,-0.1119,3.605,-5.276,-1.339
1772976574166.556,-0.9841,-0.131,-0.1122,3.535,-5.145,-1.461
1772976574166.556,-0.9855,-0.1296,-0.1112,3.631,-5.18,-1.496
1772976574166.556,-0.9835,-0.1296,-0.1092,3.605,-5.407,-1.522
1772976574166.556,-0.9851,-0.1292,-0.1082,3.64,-5.128,-1.531
1772976574166.556,-0.9826,-0.129,-0.1121,3.789,-5.268,-1.627
1772976574166.556,-0.9828,-0.1291,-0.1072,3.736,-5.268,-1.356
1772976574166.556,-0.9837,-0.1304,-0.1085,4.112,-5.066,-1.417
1772976574182.6003,-0.9834,-0.1315,-0.1095,4.165,-5.372,-1.514
1772976574182.6003,-0.9838,-0.1279,-0.111,3.85,-5.311,-1.426
1772976574182.6003,-0.9831,-0.1294,-0.1124,3.78,-5.276,-1.365
1772976574182.6003,-0.9828,-0.1282,-0.1139,3.789,-5.145,-1.356
1772976574182.6003,-0.9815,-0.1294,-0.1121,3.885,-5.434,-1.522
1772976574182.6003,-0.9803,-0.128,-0.1109,3.797,-5.162,-1.19
1772976574182.6003,-0.9819,-0.1266,-0.1136,4.06,-5.128,-1.435
1772976574182.6003,-0.98,-0.1266,-0.1122,3.797,-5.241,-1.505
1772976574182.6003,-0.9819,-0.1259,-0.1111,3.421,-5.434,-1.496
1772976574182.6003,-0.9827,-0.1258,-0.1102,3.64,-5.075,-1.208
1772976574182.6003,-0.9811,-0.1261,-0.1121,3.614,-5.022,-1.208
1772976574182.6003,-0.9811,-0.1282,-0.111,3.736,-4.987,-1.383
1772976574182.6003,-0.9783,-0.1264,-0.1091,3.692,-4.751,-1.356
1772976574198.1218,-0.9828,-0.1263,-0.1091,3.666,-4.944,-1.374
1772976574198.1218,-0.9805,-0.128,-0.1106,3.701,-4.979,-1.251
1772976574198.1218,-0.9794,-0.1266,-0.1087,3.815,-5.25,-1.4
1772976574198.1218,-0.9805,-0.1294,-0.109,3.701,-5.049,-1.304
1772976574198.1218,-0.9817,-0.1264,-0.1074,3.946,-4.987,-1.47
1772976574198.1218,-0.9814,-0.1284,-0.1099,3.736,-5.084,-1.505
1772976574198.1218,-0.9808,-0.1268,-0.1084,3.649,-4.9,-1.522
1772976574198.1218,-0.9795,-0.128,-0.1092,3.544,-5.084,-1.278
1772976574198.1218,-0.9786,-0.1282,-0.1083,3.701,-4.839,-1.137
1772976574198.1218,-0.9783,-0.1287,-0.1099,3.78,-4.865,-1.295
1772976574198.1218,-0.9799,-0.1293,-0.1114,3.649,-5.066,-1.531
1772976574198.1218,-0.9769,-0.1294,-0.1083,3.701,-5.093,-1.225
1772976574198.1218,-0.9786,-0.1301,-0.1109,3.605,-4.996,-1.33
1772976574213.649,-0.9759,-0.1289,-0.1093,3.666,-4.952,-1.426
1772976574213.649,-0.9765,-0.1305,-0.1108,3.763,-4.9,-1.505
1772976574213.649,-0.9764,-0.1288,-0.1086,3.85,-4.979,-1.321
1772976574213.649,-0.9786,-0.129,-0.1104,3.719,-5.154,-1.024
1772976574213.649,-0.9787,-0.1288,-0.1058,3.666,-5.101,-1.242
1772976574213.649,-0.9775,-0.1288,-0.1093,3.885,-5.093,-1.383
1772976574213.649,-0.9773,-0.1293,-0.1075,3.806,-5.075,-1.225
1772976574213.649,-0.9809,-0.1286,-0.108,3.92,-5.39,-1.312
1772976574213.649,-0.9773,-0.1304,-0.1087,3.868,-5.355,-1.304
1772976574213.649,-0.9783,-0.1334,-0.1071,3.474,-4.76,-1.015
1772976574213.649,-0.9786,-0.1308,-0.1072,3.684,-5.093,-1.488
1772976574213.649,-0.976,-0.1312,-0.1058,3.876,-5.11,-1.242
1772976574229.6804,-0.9774,-0.1313,-0.1085,3.902,-4.944,-1.278
1772976574229.6804,-0.9771,-0.1307,-0.1036,3.876,-5.189,-1.234
1772976574229.6804,-0.9764,-0.1313,-0.1047,3.859,-5.311,-1.356
1772976574229.6804,-0.9767,-0.1299,-0.1069,3.868,-5.303,-1.558
1772976574229.6804,-0.9751,-0.1296,-0.1062,3.99,-5.303,-1.575
1772976574229.6804,-0.9764,-0.1309,-0.105,3.929,-5.311,-1.514
1772976574229.6804,-0.9746,-0.1298,-0.1055,4.069,-5.084,-1.461
1772976574229.6804,-0.9754,-0.1308,-0.1046,4.287,-5.355,-1.593
1772976574229.6804,-0.9744,-0.1316,-0.1054,4.296,-5.434,-1.549
1772976574229.6804,-0.9732,-0.1298,-0.1042,4.419,-5.311,-1.417
1772976574229.6804,-0.9734,-0.1325,-0.1044,4.471,-5.434,-1.558
1772976574229.6804,-0.9751,-0.1278,-0.1052,4.209,-5.276,-1.383
1772976574229.6804,-0.9722,-0.1291,-0.1049,4.183,-5.171,-1.479
1772976574245.763,-0.9739,-0.13,-0.1065,4.147,-5.145,-1.426
1772976574245.763,-0.9745,-0.1305,-0.1053,4.34,-5.39,-1.636
1772976574245.763,-0.9722,-0.13,-0.1056,3.999,-5.294,-1.663
1772976574245.763,-0.9726,-0.129,-0.1078,3.964,-5.101,-1.374
1772976574245.763,-0.9751,-0.1279,-0.1086,4.183,-5.136,-1.461
1772976574245.763,-0.9739,-0.1261,-0.1078,4.086,-5.232,-1.593
1772976574245.763,-0.9749,-0.1265,-0.1086,4.174,-5.364,-1.549
1772976574245.763,-0.9773,-0.1269,-0.1073,4.121,-5.25,-1.435
1772976574245.763,-0.9749,-0.1275,-0.1071,4.034,-5.084,-1.278
1772976574245.763,-0.9769,-0.1262,-0.108,4.051,-4.996,-1.164
1772976574245.763,-0.9759,-0.1279,-0.1079,4.139,-5.171,-1.409
1772976574245.763,-0.9723,-0.1252,-0.1074,3.902,-4.987,-1.251
1772976574245.763,-0.9743,-0.1268,-0.1066,3.981,-5.101,-1.409
1772976574261.7917,-0.9764,-0.1265,-0.1054,3.938,-5.285,-1.435
1772976574261.7917,-0.9759,-0.123,-0.1069,3.868,-5.197,-1.33
1772976574261.7917,-0.9768,-0.1238,-0.1065,3.929,-4.979,-1.391
1772976574261.7917,-0.9776,-0.1252,-0.107,3.885,-4.76,-1.444
1772976574261.7917,-0.9788,-0.1265,-0.1085,3.894,-4.856,-1.654
1772976574261.7917,-0.9754,-0.1272,-0.109,3.701,-4.839,-1.724
1772976574261.7917,-0.9759,-0.1252,-0.1101,3.658,-4.856,-1.75
1772976574261.7917,-0.9771,-0.1261,-0.1096,3.868,-4.883,-1.724
1772976574261.7917,-0.9787,-0.1249,-0.1102,3.614,-4.76,-1.636
1772976574261.7917,-0.9804,-0.1266,-0.1097,3.631,-4.848,-1.627
1772976574261.7917,-0.9767,-0.1272,-0.1097,3.649,-4.839,-1.593
1772976574261.7917,-0.9775,-0.127,-0.1111,3.675,-4.883,-1.505
1772976574261.7917,-0.9788,-0.1289,-0.1088,3.692,-4.707,-1.671
1772976574277.33,-0.981,-0.1281,-0.1108,3.771,-4.935,-1.794
1772976574277.33,-0.9798,-0.1253,-0.1118,3.771,-4.83,-1.881
1772976574277.33,-0.9805,-0.127,-0.11,3.666,-4.83,-1.785
1772976574277.33,-0.9794,-0.1281,-0.1089,3.719,-4.603,-1.741
1772976574277.33,-0.9794,-0.1286,-0.108,3.535,-4.742,-1.549
1772976574277.33,-0.9798,-0.1287,-0.1099,3.553,-4.699,-1.654
1772976574277.33,-0.9789,-0.1281,-0.1118,3.474,-4.603,-1.627
1772976574277.33,-0.9793,-0.1284,-0.1089,3.456,-4.655,-1.671
1772976574277.33,-0.9822,-0.1279,-0.1089,3.369,-4.848,-1.593
1772976574277.33,-0.9825,-0.1282,-0.1136,3.132,-4.944,-1.741
1772976574277.33,-0.9812,-0.127,-0.1103,3.237,-4.638,-1.873
1772976574277.33,-0.9811,-0.1255,-0.1092,3.29,-4.532,-1.575
1772976574277.33,-0.9828,-0.1268,-0.111,3.203,-4.707,-1.566
1772976574292.6453,-0.9824,-0.1243,-0.1093,3.106,-4.646,-1.82
1772976574292.6453,-0.9826,-0.1291,-0.111,3.062,-4.883,-1.934
1772976574292.6453,-0.9835,-0.1275,-0.1082,3.054,-4.952,-1.802
1772976574292.6453,-0.9803,-0.126,-0.1085,3.054,-4.69,-1.741
1772976574292.6453,-0.9795,-0.1257,-0.1107,3.036,-4.497,-1.741
1772976574292.6453,-0.9789,-0.1269,-0.1097,2.809,-4.585,-1.689
1772976574292.6453,-0.977,-0.1276,-0.1113,3.01,-4.795,-1.61
1772976574292.6453,-0.9789,-0.1274,-0.1127,3.098,-4.891,-1.575
1772976574292.6453,-0.9783,-0.1272,-0.1096,2.914,-4.777,-1.829
1772976574292.6453,-0.9774,-0.1269,-0.1094,2.966,-5.049,-1.75
1772976574292.6453,-0.9777,-0.1289,-0.1102,3.115,-4.979,-1.829
1772976574292.6453,-0.9777,-0.1289,-0.1096,2.94,-4.979,-1.601
1772976574308.9426,-0.9755,-0.1309,-0.1072,2.791,-4.909,-1.601
1772976574308.9426,-0.9759,-0.131,-0.1099,2.984,-5.11,-1.715
1772976574308.9426,-0.9776,-0.1286,-0.1118,2.87,-4.883,-1.785
1772976574308.9426,-0.9776,-0.129,-0.1075,2.966,-5.093,-1.89
1772976574308.9426,-0.9783,-0.1281,-0.1072,2.966,-4.909,-1.802
1772976574308.9426,-0.9776,-0.1313,-0.105,3.027,-5.442,-1.706
1772976574308.9426,-0.9778,-0.1307,-0.1053,3.159,-5.136,-1.593
1772976574308.9426,-0.979,-0.1318,-0.1064,3.062,-5.162,-1.846
1772976574308.9426,-0.9772,-0.1299,-0.1036,2.94,-5.46,-1.794
1772976574308.9426,-0.9762,-0.1293,-0.1058,2.914,-5.372,-1.671
1772976574308.9426,-0.9722,-0.1339,-0.106,2.914,-5.355,-1.846
1772976574308.9426,-0.9743,-0.1344,-0.1056,2.958,-5.381,-1.531
1772976574308.9426,-0.9731,-0.1319,-0.107,2.94,-5.416,-1.619
1772976574325.0298,-0.9767,-0.1351,-0.1007,3.132,-5.32,-1.785
1772976574325.0298,-0.9722,-0.1351,-0.1008,3.308,-5.416,-1.663
1772976574325.0298,-0.9719,-0.1329,-0.099,3.36,-5.399,-1.724
1772976574325.0298,-0.9756,-0.1338,-0.0997,3.518,-5.407,-1.759
1772976574325.0298,-0.9755,-0.1355,-0.1008,3.561,-5.407,-1.741
1772976574325.0298,-0.9749,-0.1349,-0.0996,3.614,-5.451,-1.802
1772976574325.0298,-0.9751,-0.1354,-0.0978,3.631,-5.311,-1.61
1772976574325.0298,-0.9738,-0.1354,-0.0972,3.797,-5.224,-1.575
1772976574325.0298,-0.9732,-0.1363,-0.1,3.806,-5.276,-1.61
1772976574325.0298,-0.9753,-0.1328,-0.1018,3.833,-5.154,-1.706
1772976574325.0298,-0.973,-0.1351,-0.1003,3.841,-5.171,-1.706
1772976574325.0298,-0.9734,-0.1362,-0.1008,3.868,-5.224,-1.61
1772976574325.0298,-0.9743,-0.1358,-0.1026,3.911,-4.909,-1.54
1772976574325.0298,-0.9769,-0.1362,-0.1013,3.981,-5.171,-1.601
1772976574341.1128,-0.9755,-0.1317,-0.1016,4.13,-4.839,-1.75
1772976574341.1128,-0.9773,-0.1349,-0.1015,3.902,-4.926,-1.706
1772976574341.1128,-0.9737,-0.1337,-0.1017,4.086,-4.655,-1.488
1772976574341.1128,-0.9734,-0.1322,-0.1071,4.034,-4.777,-1.566
1772976574341.1128,-0.9774,-0.136,-0.1066,3.929,-4.76,-1.549
1772976574341.1128,-0.9747,-0.1321,-0.1067,4.209,-4.567,-1.706
1772976574341.1128,-0.9771,-0.1322,-0.1072,3.981,-4.655,-1.68
1772976574341.1128,-0.9766,-0.1313,-0.1011,4.016,-4.594,-1.759
1772976574341.1128,-0.9762,-0.1314,-0.1053,4.077,-4.524,-1.575
1772976574341.1128,-0.9766,-0.1302,-0.1097,4.191,-4.532,-1.496
1772976574341.1128,-0.978,-0.1316,-0.1096,4.025,-4.786,-1.242
1772976574341.1128,-0.9764,-0.1305,-0.1103,4.016,-4.62,-1.391
1772976574357.6477,-0.9784,-0.1292,-0.1108,3.92,-4.585,-1.435
1772976574357.6477,-0.9777,-0.1271,-0.1085,3.719,-4.734,-1.409
1772976574357.6477,-0.9772,-0.1291,-0.1117,3.938,-4.716,-1.365
1772976574357.6477,-0.9759,-0.1273,-0.1099,3.894,-4.699,-1.374
1772976574357.6477,-0.9761,-0.1269,-0.1126,3.973,-4.751,-1.356
1772976574357.6477,-0.9783,-0.1289,-0.1116,3.929,-4.638,-1.146
1772976574357.6477,-0.9775,-0.1263,-0.1117,3.579,-4.603,-1.059
1772976574357.6477,-0.9784,-0.1269,-0.1103,3.649,-4.594,-1.26
1772976574357.6477,-0.9778,-0.127,-0.1159,3.544,-4.751,-0.971
1772976574357.6477,-0.977,-0.1266,-0.1153,3.614,-4.795,-0.963
1772976574357.6477,-0.9764,-0.1278,-0.1122,3.491,-4.734,-1.164
1772976574357.6477,-0.9769,-0.124,-0.1121,3.342,-4.97,-1.208
1772976574357.6477,-0.9791,-0.1252,-0.1103,3.482,-5.014,-1.067
1772976574357.6477,-0.978,-0.1229,-0.1114,3.465,-4.777,-1.085
1772976574373.1765,-0.9782,-0.1218,-0.109,3.404,-4.848,-1.05
1772976574373.1765,-0.979,-0.1225,-0.1096,3.299,-4.9,-1.242
1772976574373.1765,-0.9786,-0.1225,-0.1111,3.299,-4.777,-1.173
1772976574373.1765,-0.9786,-0.1225,-0.1097,3.106,-4.681,-1.225
1772976574373.1765,-0.9782,-0.1244,-0.1111,3.141,-4.909,-1.26
1772976574373.1765,-0.9794,-0.1252,-0.1091,3.132,-4.856,-1.251
1772976574373.1765,-0.976,-0.1251,-0.1106,3.194,-5.005,-1.19
1772976574373.1765,-0.9761,-0.1216,-0.1103,3.264,-4.848,-1.321
1772976574373.1765,-0.9786,-0.1235,-0.1128,3.229,-4.716,-1.391
1772976574373.1765,-0.9761,-0.1222,-0.1093,3.203,-4.725,-1.391
1772976574373.1765,-0.978,-0.1252,-0.1094,3.264,-4.812,-1.417
1772976574373.1765,-0.9764,-0.1218,-0.1135,3.15,-4.935,-1.584
1772976574388.7122,-0.9752,-0.1249,-0.1104,3.106,-5.005,-1.627
1772976574388.7122,-0.978,-0.1224,-0.1104,3.062,-4.856,-1.593
1772976574388.7122,-0.9761,-0.1222,-0.114,3.132,-4.935,-1.593
1772976574388.7122,-0.9738,-0.1227,-0.1097,3.159,-4.996,-1.549
1772976574388.7122,-0.9753,-0.1236,-0.1118,3.01,-4.987,-1.505
1772976574388.7122,-0.9749,-0.1212,-0.1135,2.73,-5.189,-1.4
1772976574388.7122,-0.9748,-0.1224,-0.1116,2.879,-5.224,-1.479
1772976574388.7122,-0.9761,-0.1233,-0.1123,2.791,-5.285,-1.776
1772976574388.7122,-0.9725,-0.1225,-0.113,2.914,-5.609,-1.829
1772976574388.7122,-0.9743,-0.1238,-0.1102,2.87,-5.303,-1.96
1772976574388.7122,-0.9744,-0.1236,-0.1121,2.835,-5.084,-1.969
1772976574388.7122,-0.9736,-0.1272,-0.1116,3.036,-5.381,-2.17
1772976574388.7122,-0.9756,-0.1256,-0.1105,2.896,-5.093,-1.942
1772976574404.2336,-0.9747,-0.1262,-0.1089,2.651,-5.294,-1.907
1772976574404.2336,-0.9766,-0.1258,-0.1098,2.634,-5.18,-1.89
1772976574404.2336,-0.9785,-0.1238,-0.1114,2.555,-5.197,-1.785
1772976574404.2336,-0.9753,-0.1257,-0.1122,2.625,-5.197,-2.118
1772976574404.2336,-0.9736,-0.1266,-0.1133,2.572,-5.189,-1.951
1772976574404.2336,-0.9767,-0.1267,-0.1118,2.73,-5.53,-1.846
1772976574404.2336,-0.9747,-0.1262,-0.1107,2.748,-5.416,-2.214
1772976574404.2336,-0.976,-0.1263,-0.1111,2.791,-5.346,-2.013
1772976574404.2336,-0.9755,-0.1272,-0.108,2.817,-5.294,-1.837
1772976574404.2336,-0.9776,-0.1239,-0.1112,2.678,-5.495,-2.03
1772976574404.2336,-0.975,-0.1272,-0.1129,2.678,-5.416,-2.126
1772976574404.2336,-0.9766,-0.1268,-0.1098,2.791,-5.014,-1.969
1772976574404.2336,-0.9781,-0.1263,-0.1082,2.8,-5.162,-2.1
1772976574419.6208,-0.9758,-0.129,-0.11,2.774,-5.268,-2.118
1772976574419.6208,-0.9744,-0.1279,-0.1114,2.625,-5.329,-2.118
1772976574419.6208,-0.9759,-0.1304,-0.1105,2.817,-5.469,-2.17
1772976574419.6208,-0.9743,-0.1282,-0.1114,2.783,-5.268,-2.249
1772976574419.6208,-0.9739,-0.1294,-0.112,2.607,-5.364,-2.126
1772976574419.6208,-0.9761,-0.1284,-0.1108,2.704,-5.582,-2.144
1772976574419.6208,-0.9734,-0.1305,-0.11,2.966,-5.67,-2.109
1772976574419.6208,-0.9755,-0.1301,-0.1122,3.054,-5.609,-2.231
1772976574419.6208,-0.9744,-0.1274,-0.1133,2.896,-5.215,-1.986
1772976574419.6208,-0.9746,-0.1297,-0.1111,2.879,-5.285,-2.03
1772976574419.6208,-0.974,-0.1312,-0.1104,2.931,-5.617,-1.96
1772976574419.6208,-0.9737,-0.1301,-0.1075,3.071,-5.723,-2.004
1772976574435.5898,-0.9759,-0.1318,-0.1095,3.176,-5.714,-2.135
1772976574435.5898,-0.9745,-0.1294,-0.1108,3.342,-5.609,-2.135
1772976574435.5898,-0.9735,-0.1294,-0.108,3.325,-5.6,-2.074
1772976574435.5898,-0.9747,-0.1305,-0.1086,3.264,-5.968,-2.161
1772976574435.5898,-0.9775,-0.1322,-0.1075,3.264,-5.652,-2.083
1772976574435.5898,-0.9733,-0.1318,-0.105,3.211,-5.609,-2.013
1772976574435.5898,-0.9756,-0.1335,-0.1057,3.342,-5.74,-2.275
1772976574435.5898,-0.9762,-0.1337,-0.1062,3.5,-5.705,-2.275
1772976574435.5898,-0.9797,-0.1342,-0.107,3.526,-5.556,-2.31
1772976574435.5898,-0.9782,-0.136,-0.1053,3.544,-5.626,-2.205
1772976574435.5898,-0.9828,-0.1365,-0.1052,3.526,-5.574,-2.1
1772976574435.5898,-0.98,-0.1343,-0.1046,3.308,-5.329,-2.152
1772976574435.5898,-0.979,-0.1351,-0.1069,3.491,-5.486,-2.249
1772976574451.6375,-0.9807,-0.1339,-0.1083,3.456,-5.495,-2.301
1772976574451.6375,-0.982,-0.1335,-0.1096,3.386,-5.294,-1.986
1772976574451.6375,-0.9809,-0.1333,-0.1091,3.544,-5.101,-2.074
1772976574451.6375,-0.9851,-0.1339,-0.1091,3.404,-4.979,-2.065
1772976574451.6375,-0.9856,-0.1351,-0.1085,3.439,-5.206,-2.021
1772976574451.6375,-0.9855,-0.133,-0.1069,3.413,-5.197,-1.899
1772976574451.6375,-0.9837,-0.1327,-0.1053,3.439,-5.136,-2.03
1772976574451.6375,-0.9831,-0.1337,-0.1091,3.246,-4.987,-1.881
1772976574451.6375,-0.9819,-0.1345,-0.1108,3.509,-4.987,-2.039
1772976574451.6375,-0.9837,-0.1365,-0.1094,3.325,-4.848,-1.829
1772976574451.6375,-0.9831,-0.1349,-0.1074,3.342,-4.83,-1.811
1772976574451.6375,-0.9834,-0.1315,-0.1091,3.421,-4.909,-2.004
1772976574451.6375,-0.9859,-0.133,-0.1087,3.325,-4.55,-1.732
1772976574467.6648,-0.9854,-0.1321,-0.111,3.308,-4.384,-1.794
1772976574467.6648,-0.9843,-0.1318,-0.1132,3.351,-4.751,-1.522
1772976574467.6648,-0.9837,-0.1319,-0.1123,3.413,-4.638,-1.776
1772976574467.6648,-0.9822,-0.1332,-0.1133,3.325,-4.76,-1.75
1772976574467.6648,-0.9826,-0.134,-0.1174,3.474,-4.515,-1.785
1772976574467.6648,-0.9837,-0.1346,-0.1164,3.482,-4.436,-1.627
1772976574467.6648,-0.9833,-0.1344,-0.1149,3.561,-4.751,-1.829
1772976574467.6648,-0.9822,-0.1341,-0.1128,3.596,-4.629,-1.802
1772976574467.6648,-0.9822,-0.1336,-0.1116,3.369,-4.865,-1.663
1772976574467.6648,-0.9805,-0.1338,-0.1113,3.194,-4.83,-1.811
1772976574467.6648,-0.9831,-0.1328,-0.1101,3.062,-4.742,-1.776
1772976574467.6648,-0.9811,-0.1342,-0.1099,3.185,-4.952,-1.426
1772976574467.6648,-0.9814,-0.1326,-0.1128,3.316,-4.935,-1.321
1772976574483.7056,-0.9842,-0.1319,-0.1152,3.089,-5.128,-1.05
1772976574483.7056,-0.9825,-0.1316,-0.1102,3.29,-5.058,-1.26
1772976574483.7056,-0.98,-0.1302,-0.1141,2.94,-4.891,-1.234
1772976574483.7056,-0.9841,-0.1301,-0.1125,2.888,-4.821,-1.129
1772976574483.7056,-0.9801,-0.132,-0.113,3.045,-5.04,-1.129
1772976574483.7056,-0.9812,-0.1294,-0.1153,3.08,-5.18,-0.866
1772976574483.7056,-0.9793,-0.1254,-0.1107,3.098,-4.795,-0.963
1772976574483.7056,-0.9779,-0.1294,-0.1115,3.15,-4.839,-0.927
1772976574483.7056,-0.9797,-0.1281,-0.1131,3.106,-5.075,-0.971
1772976574483.7056,-0.98,-0.1278,-0.1134,2.984,-5.154,-0.866
1772976574483.7056,-0.9808,-0.1287,-0.113,2.931,-4.918,-1.041
1772976574483.7056,-0.9812,-0.128,-0.111,2.949,-4.961,-1.094
1772976574483.7056,-0.9788,-0.127,-0.1125,3.01,-5.294,-1.006
1772976574498.9832,-0.9805,-0.1288,-0.1119,3.019,-4.996,-0.963
1772976574498.9832,-0.9769,-0.1283,-0.1104,3.316,-5.11,-1.094
1772976574498.9832,-0.9778,-0.1269,-0.1113,3.255,-5.329,-1.085
1772976574498.9832,-0.9765,-0.1255,-0.1118,3.334,-5.39,-1.321
1772976574498.9832,-0.9771,-0.1272,-0.1101,3.089,-5.171,-1.242
1772976574498.9832,-0.9764,-0.1279,-0.1089,3.071,-5.241,-1.286
1772976574498.9832,-0.9752,-0.1261,-0.1105,3.124,-5.259,-1.383
1772976574498.9832,-0.9765,-0.1268,-0.1083,3.264,-5.058,-1.365
1772976574498.9832,-0.9737,-0.1259,-0.1104,3.22,-5.066,-1.374
1772976574498.9832,-0.974,-0.1269,-0.1076,3.308,-5.25,-1.531
1772976574498.9832,-0.9736,-0.1293,-0.1064,3.29,-5.197,-1.627
1772976574498.9832,-0.9745,-0.1277,-0.1055,3.5,-5.224,-1.505
1772976574514.686,-0.9751,-0.128,-0.1049,3.421,-5.154,-1.768
1772976574514.686,-0.9733,-0.129,-0.1052,3.675,-4.874,-1.82
1772976574514.686,-0.9717,-0.1286,-0.1032,3.614,-4.769,-1.873
1772976574514.686,-0.9723,-0.1281,-0.1055,3.701,-5.145,-1.759
1772976574514.686,-0.9702,-0.128,-0.1079,3.692,-4.707,-1.846
1772976574514.686,-0.9682,-0.1276,-0.1092,3.859,-4.742,-2.047
1772976574514.686,-0.9693,-0.1294,-0.1114,3.911,-4.944,-2.013
1772976574514.686,-0.9689,-0.1293,-0.1116,3.701,-4.865,-1.907
1772976574514.686,-0.9675,-0.1297,-0.1089,3.885,-4.655,-1.873
1772976574514.686,-0.9698,-0.1271,-0.1047,3.64,-4.944,-2.275
1772976574514.686,-0.9704,-0.1276,-0.1077,3.745,-4.716,-2.047
1772976574514.686,-0.9706,-0.1263,-0.1088,3.596,-4.699,-1.96
1772976574514.686,-0.9694,-0.1277,-0.1062,3.631,-4.812,-2.109
1772976574531.519,-0.9699,-0.1276,-0.1071,3.728,-4.865,-2.065
1772976574531.519,-0.9683,-0.1256,-0.1109,3.456,-4.891,-1.942
1772976574531.519,-0.9676,-0.128,-0.1092,3.57,-4.751,-2.109
1772976574531.519,-0.9658,-0.1286,-0.1097,3.789,-5.031,-2.039
1772976574531.519,-0.9662,-0.1268,-0.1099,3.666,-5.014,-1.829
1772976574531.519,-0.967,-0.1279,-0.1092,3.43,-4.769,-1.96
1772976574531.519,-0.9686,-0.1272,-0.1077,3.386,-4.918,-2.109
1772976574531.519,-0.9687,-0.1269,-0.11,3.518,-5.022,-2.126
1772976574531.519,-0.9701,-0.1274,-0.106,3.605,-5.058,-2.118
1772976574531.519,-0.9683,-0.1285,-0.1053,3.587,-5.014,-2.056
1772976574531.519,-0.9699,-0.1276,-0.1061,3.465,-5.171,-2.284
1772976574531.519,-0.9706,-0.1277,-0.1068,3.754,-5.031,-2.354
1772976574531.519,-0.9687,-0.131,-0.1064,3.78,-5.259,-2.362
1772976574531.519,-0.9732,-0.1313,-0.1067,3.526,-5.294,-2.161
1772976574547.4731,-0.974,-0.1313,-0.1057,3.728,-5.093,-2.161
1772976574547.4731,-0.9736,-0.1319,-0.104,3.833,-4.891,-2.257
1772976574547.4731,-0.9754,-0.1309,-0.1048,3.631,-4.734,-2.056
1772976574547.4731,-0.9765,-0.1313,-0.1017,3.701,-4.515,-2.03
1772976574547.4731,-0.9751,-0.1337,-0.1021,3.605,-4.76,-2.039
1772976574547.4731,-0.9787,-0.1363,-0.1047,3.587,-4.795,-2.223
1772976574547.4731,-0.9753,-0.1345,-0.1022,3.666,-4.55,-2.205
1772976574547.4731,-0.9775,-0.1322,-0.1077,3.806,-4.559,-2.047
1772976574547.4731,-0.9781,-0.1337,-0.1065,3.579,-4.506,-1.82
1772976574547.4731,-0.9793,-0.1339,-0.1077,3.561,-4.471,-1.995
1772976574547.4731,-0.9779,-0.1351,-0.1094,3.605,-4.497,-2.03
1772976574547.4731,-0.9795,-0.1353,-0.1103,3.447,-4.611,-1.96
1772976574547.4731,-0.9798,-0.1346,-0.1105,3.325,-4.375,-1.899
1772976574563.0425,-0.9815,-0.1351,-0.1082,3.535,-4.463,-1.802
1772976574563.0425,-0.9828,-0.1355,-0.1102,3.587,-4.349,-1.776
1772976574563.0425,-0.9843,-0.1358,-0.1122,3.631,-4.401,-1.575
1772976574563.0425,-0.9824,-0.1365,-0.1132,3.526,-4.357,-1.61
1772976574563.0425,-0.9852,-0.1359,-0.1125,3.692,-4.541,-1.671
1772976574563.0425,-0.9841,-0.1349,-0.1123,3.342,-4.734,-1.61
1772976574563.0425,-0.9845,-0.1367,-0.1125,3.36,-4.664,-1.374
1772976574563.0425,-0.9841,-0.1358,-0.1121,3.579,-4.874,-1.409
1772976574563.0425,-0.9826,-0.1351,-0.1137,3.649,-4.952,-1.531
1772976574563.0425,-0.9869,-0.1362,-0.1138,3.544,-5.11,-1.094
1772976574563.0425,-0.9861,-0.1342,-0.1139,3.447,-5.154,-1.242
1772976574563.0425,-0.9847,-0.1338,-0.1135,3.666,-4.9,-1.383
1772976574578.5845,-0.9842,-0.1337,-0.1136,3.491,-5.171,-1.067
1772976574578.5845,-0.9842,-0.1319,-0.1143,3.57,-5.145,-1.242
1772976574578.5845,-0.9843,-0.1308,-0.115,3.596,-5.145,-1.208
1772976574578.5845,-0.9843,-0.1305,-0.116,3.736,-5.381,-1.4
1772976574578.5845,-0.9865,-0.1312,-0.1134,3.57,-5.311,-1.164
1772976574578.5845,-0.9835,-0.1309,-0.1127,3.692,-4.935,-1.225
1772976574578.5845,-0.9856,-0.1286,-0.1133,3.684,-5.154,-1.295
1772976574578.5845,-0.9872,-0.1302,-0.1122,3.421,-5.197,-1.347
1772976574578.5845,-0.9856,-0.1263,-0.1127,3.509,-5.232,-1.479
1772976574578.5845,-0.9874,-0.1272,-0.1134,3.649,-5.232,-1.374
1772976574578.5845,-0.9851,-0.1274,-0.1141,3.395,-5.268,-1.304
1772976574578.5845,-0.9859,-0.1267,-0.113,3.36,-5.119,-1.374
1772976574578.5845,-0.9855,-0.1237,-0.1141,3.36,-5.303,-1.295
1772976574594.322,-0.983,-0.1263,-0.1166,3.203,-5.241,-1.312
1772976574594.322,-0.9839,-0.126,-0.1123,3.211,-5.329,-1.321
1772976574594.322,-0.9819,-0.1246,-0.1144,3.194,-5.276,-1.304
1772976574594.322,-0.9851,-0.1233,-0.1131,3.194,-5.276,-1.505
1772976574594.322,-0.98,-0.1236,-0.1108,3.045,-5.215,-1.356
1772976574594.322,-0.9806,-0.1255,-0.1146,2.914,-5.276,-1.496
1772976574594.322,-0.9795,-0.1222,-0.1125,3.124,-5.311,-1.505
1772976574594.322,-0.9789,-0.1235,-0.1106,3.159,-5.32,-1.479
1772976574594.322,-0.9778,-0.126,-0.1111,2.861,-5.46,-1.68
1772976574594.322,-0.9799,-0.124,-0.1102,2.931,-5.434,-1.558
1772976574594.322,-0.9783,-0.1239,-0.1104,3.132,-5.425,-1.663
1772976574594.322,-0.9778,-0.1241,-0.1099,2.931,-5.451,-1.855
1772976574594.322,-0.9756,-0.1259,-0.1114,2.853,-5.189,-1.575
1772976574610.2224,-0.9739,-0.126,-0.1109,2.905,-5.679,-1.54
1772976574610.2224,-0.974,-0.1264,-0.1124,2.861,-5.504,-1.452
1772976574610.2224,-0.9736,-0.1258,-0.1094,2.975,-5.372,-1.514
1772976574610.2224,-0.9715,-0.1252,-0.1124,2.922,-5.574,-1.496
1772976574610.2224,-0.973,-0.1271,-0.1079,2.94,-5.644,-1.286
1772976574610.2224,-0.9701,-0.1262,-0.1066,3.036,-5.749,-1.365
1772976574610.2224,-0.9704,-0.1261,-0.1061,2.914,-5.723,-1.47
1772976574610.2224,-0.9679,-0.1258,-0.1065,3.045,-5.635,-1.295
1772976574610.2224,-0.9687,-0.1266,-0.105,2.625,-5.399,-1.452
1772976574610.2224,-0.9695,-0.1275,-0.1063,2.835,-5.652,-1.417
1772976574610.2224,-0.9688,-0.1274,-0.1051,2.879,-5.469,-1.426
1772976574610.2224,-0.9673,-0.1258,-0.1063,3.01,-5.478,-1.575
1772976574625.6118,-0.9681,-0.1279,-0.1036,2.835,-5.372,-1.47
1772976574625.6118,-0.9682,-0.1261,-0.1051,2.765,-5.486,-1.435
1772976574625.6118,-0.9697,-0.1279,-0.1056,2.712,-5.303,-1.514
1772976574625.6118,-0.9684,-0.129,-0.105,2.931,-5.285,-1.4
1772976574625.6118,-0.9705,-0.1297,-0.105,2.993,-5.442,-1.444
1772976574625.6118,-0.9705,-0.1293,-0.1047,3.124,-5.46,-1.356
1772976574625.6118,-0.9699,-0.1296,-0.1039,3.272,-5.329,-1.619
1772976574625.6118,-0.9689,-0.1311,-0.1052,3.062,-5.416,-1.54
1772976574625.6118,-0.971,-0.1304,-0.1053,3.194,-5.451,-1.522
1772976574625.6118,-0.9709,-0.1326,-0.1063,3.272,-5.407,-1.522
1772976574625.6118,-0.9716,-0.1309,-0.1083,3.159,-5.285,-1.417
1772976574625.6118,-0.9754,-0.1313,-0.1069,3.5,-5.372,-1.566
1772976574625.6118,-0.9745,-0.1302,-0.1079,3.526,-5.189,-1.715
1772976574641.085,-0.9734,-0.1302,-0.1096,3.439,-5.259,-1.776
1772976574641.085,-0.9781,-0.1316,-0.1088,3.465,-5.451,-1.794
1772976574641.085,-0.9756,-0.1308,-0.1093,3.605,-5.294,-1.873
1772976574641.085,-0.9755,-0.1329,-0.1082,3.666,-5.11,-1.593
1772976574641.085,-0.975,-0.1331,-0.1086,3.719,-5.206,-1.654
1772976574641.085,-0.9767,-0.134,-0.1078,3.78,-5.197,-1.584
1772976574641.085,-0.979,-0.1307,-0.1102,3.623,-5.364,-1.811
1772976574641.085,-0.9805,-0.1346,-0.1113,3.675,-5.285,-1.732
1772976574641.085,-0.9782,-0.1343,-0.1094,3.754,-5.46,-1.881
1772976574641.085,-0.978,-0.1323,-0.1105,3.78,-5.285,-1.873
1772976574641.085,-0.9789,-0.1329,-0.1122,3.815,-5.294,-2.004
1772976574641.085,-0.9806,-0.133,-0.1126,3.999,-5.556,-1.811
1772976574656.6982,-0.9788,-0.1321,-0.1113,3.868,-5.513,-2.056
1772976574656.6982,-0.9789,-0.1322,-0.1096,3.859,-5.189,-2.152
1772976574656.6982,-0.9821,-0.1326,-0.1086,3.631,-5.565,-2.039
1772976574656.6982,-0.9794,-0.1337,-0.111,3.614,-5.259,-2.118
1772976574656.6982,-0.9818,-0.1326,-0.1134,3.728,-5.136,-1.881
1772976574656.6982,-0.9813,-0.1316,-0.1142,3.684,-5.136,-1.829
1772976574656.6982,-0.9811,-0.1341,-0.1123,3.754,-5.119,-1.802
1772976574656.6982,-0.9806,-0.1313,-0.1118,3.684,-5.101,-1.715
1772976574656.6982,-0.9822,-0.1332,-0.1086,3.675,-5.276,-1.986
1772976574656.6982,-0.9809,-0.1292,-0.1101,3.518,-5.25,-2.109
1772976574656.6982,-0.9795,-0.1313,-0.1112,3.605,-5.268,-2.021
1772976574656.6982,-0.9823,-0.1316,-0.1114,3.605,-5.101,-2.021
1772976574656.6982,-0.9809,-0.1328,-0.1099,3.369,-5.093,-1.837
1772976574671.864,-0.9812,-0.1347,-0.1121,3.544,-4.9,-1.741
1772976574671.864,-0.9822,-0.1338,-0.1119,3.377,-4.926,-1.768
1772976574671.864,-0.9814,-0.1326,-0.1089,3.544,-5.145,-1.514
1772976574671.864,-0.9811,-0.1344,-0.1066,3.623,-5.136,-1.409
1772976574671.864,-0.9823,-0.1336,-0.1074,3.535,-4.97,-1.531
1772976574671.864,-0.9826,-0.1351,-0.106,3.377,-4.97,-1.627
1772976574671.864,-0.9844,-0.1345,-0.1033,3.553,-4.926,-1.339
1772976574671.864,-0.9809,-0.1358,-0.1044,3.456,-4.812,-1.4
1772976574671.864,-0.9812,-0.1388,-0.1045,3.447,-4.629,-0.998
1772976574671.864,-0.9822,-0.1369,-0.1044,3.272,-4.532,-1.076
1772976574671.864,-0.981,-0.1352,-0.1089,3.561,-4.445,-0.945
1772976574671.864,-0.9798,-0.1371,-0.1068,3.509,-4.357,-0.919
1772976574671.864,-0.98,-0.1349,-0.1067,3.369,-4.524,-0.858
1772976574687.4294,-0.9789,-0.1366,-0.1107,3.342,-4.401,-0.814
1772976574687.4294,-0.9765,-0.135,-0.1094,3.447,-4.436,-0.814
1772976574687.4294,-0.9811,-0.1376,-0.1086,3.395,-4.419,-0.744
1772976574687.4294,-0.9793,-0.1359,-0.1074,3.561,-4.559,-0.674
1772976574687.4294,-0.9811,-0.1355,-0.1093,3.474,-4.55,-0.621
1772976574687.4294,-0.9813,-0.1338,-0.1083,3.377,-4.585,-0.709
1772976574687.4294,-0.9826,-0.1341,-0.1108,3.22,-4.681,-0.542
1772976574687.4294,-0.9837,-0.1338,-0.1096,3.08,-4.567,-0.534
1772976574687.4294,-0.9853,-0.1332,-0.1078,3.22,-4.401,-0.516
1772976574687.4294,-0.9862,-0.1326,-0.1084,3.465,-4.34,-0.542
1772976574687.4294,-0.9886,-0.1333,-0.1042,3.518,-4.41,-0.551
1772976574687.4294,-0.9875,-0.1326,-0.1069,3.36,-4.375,-0.647
1772976574703.268,-0.9891,-0.1335,-0.1067,3.456,-4.445,-0.823
1772976574703.268,-0.988,-0.1322,-0.1077,3.623,-4.147,-0.604
1772976574703.268,-0.9873,-0.1319,-0.11,3.544,-3.92,-0.621
1772976574703.268,-0.9878,-0.1321,-0.1131,3.614,-4.165,-0.691
1772976574703.268,-0.987,-0.1307,-0.1123,3.623,-4.069,-0.796
1772976574703.268,-0.9871,-0.1332,-0.1144,3.631,-4.174,-0.927
1772976574703.268,-0.9853,-0.1318,-0.1146,3.421,-4.226,-1.041
1772976574703.268,-0.9845,-0.1288,-0.1169,3.535,-4.314,-1.137
1772976574703.268,-0.9857,-0.1293,-0.1111,3.535,-4.226,-1.094
1772976574703.268,-0.9832,-0.131,-0.1118,3.456,-4.13,-1.103
1772976574703.268,-0.9865,-0.1297,-0.1144,3.5,-4.226,-1.199
1772976574703.268,-0.9815,-0.1274,-0.1197,3.342,-4.279,-1.33
1772976574703.268,-0.9817,-0.1295,-0.1187,3.194,-4.235,-1.488
1772976574718.9763,-0.9808,-0.1299,-0.1171,3.342,-4.008,-1.321
1772976574718.9763,-0.9815,-0.1281,-0.1173,3.299,-4.2,-1.417
1772976574718.9763,-0.982,-0.1297,-0.1179,3.334,-4.559,-1.295
1772976574718.9763,-0.9787,-0.1307,-0.1161,3.386,-4.655,-1.225
1772976574718.9763,-0.9781,-0.1305,-0.1168,3.404,-4.961,-1.549
1772976574718.9763,-0.9773,-0.1294,-0.1185,3.167,-4.97,-1.33
1772976574718.9763,-0.9772,-0.1292,-0.1157,3.062,-4.987,-1.488
1772976574718.9763,-0.9762,-0.1285,-0.1167,3.334,-4.961,-1.26
1772976574718.9763,-0.9754,-0.1274,-0.1155,3.045,-4.865,-1.417
1772976574718.9763,-0.9756,-0.1274,-0.1149,2.922,-5.031,-1.374
1772976574718.9763,-0.9736,-0.1268,-0.1135,2.783,-5.268,-1.47
1772976574718.9763,-0.9732,-0.1263,-0.1126,2.993,-5.241,-1.356
1772976574718.9763,-0.9715,-0.1257,-0.1116,3.027,-5.486,-1.383
1772976574735.0586,-0.9731,-0.1261,-0.1102,2.625,-5.294,-1.278
1772976574735.0586,-0.9693,-0.1271,-0.1116,2.791,-5.565,-1.304
1772976574735.0586,-0.9694,-0.1247,-0.1119,2.87,-5.766,-1.129
1772976574735.0586,-0.9717,-0.124,-0.1103,2.8,-5.469,-1.015
1772976574735.0586,-0.9701,-0.1254,-0.1089,2.625,-5.74,-1.321
1772976574735.0586,-0.9692,-0.124,-0.1064,2.748,-5.617,-1.225
1772976574735.0586,-0.9692,-0.1225,-0.1081,2.739,-5.53,-0.971
1772976574735.0586,-0.9672,-0.1218,-0.1072,2.695,-5.346,-1.199
1772976574735.0586,-0.9682,-0.125,-0.1055,2.616,-5.635,-1.032
1772976574735.0586,-0.9676,-0.1255,-0.1042,2.704,-5.723,-1.032
1772976574735.0586,-0.9695,-0.1242,-0.1072,2.459,-5.626,-1.032
1772976574735.0586,-0.9681,-0.1233,-0.1029,2.704,-5.749,-1.242
1772976574735.0586,-0.968,-0.1231,-0.103,2.817,-5.53,-1.103
1772976574751.3706,-0.97,-0.1228,-0.1028,2.721,-5.661,-1.173
1772976574751.3706,-0.9692,-0.124,-0.1035,2.817,-5.513,-1.032
1772976574751.3706,-0.9704,-0.1255,-0.1027,3.054,-5.617,-1.155
1772976574751.3706,-0.9708,-0.125,-0.0996,2.87,-5.372,-1.356
1772976574751.3706,-0.9703,-0.126,-0.1022,2.835,-5.556,-1.234
1772976574751.3706,-0.97,-0.1262,-0.1059,3.132,-5.276,-1.137
1772976574751.3706,-0.9699,-0.1269,-0.1031,3.308,-5.294,-0.927
1772976574751.3706,-0.9727,-0.1259,-0.1035,3.439,-5.407,-1.199
1772976574751.3706,-0.9717,-0.124,-0.1035,3.43,-5.171,-1.383
1772976574751.3706,-0.9712,-0.1247,-0.1032,3.342,-5.232,-1.479
1772976574751.3706,-0.9717,-0.1236,-0.1026,3.299,-5.294,-1.417
1772976574751.3706,-0.9729,-0.1222,-0.1032,3.272,-4.856,-1.522
1772976574751.3706,-0.9739,-0.1228,-0.102,3.246,-4.961,-1.601
1772976574766.8577,-0.9739,-0.1228,-0.1036,3.369,-4.987,-1.566
1772976574766.8577,-0.9749,-0.1247,-0.1013,3.605,-4.996,-1.671
1772976574766.8577,-0.9737,-0.1238,-0.1041,3.587,-4.856,-1.741
1772976574766.8577,-0.9745,-0.1218,-0.1083,3.623,-4.646,-1.654
1772976574766.8577,-0.9727,-0.1221,-0.1103,3.579,-4.55,-1.811
1772976574766.8577,-0.9737,-0.1244,-0.1099,3.579,-4.734,-1.942
1772976574766.8577,-0.9772,-0.126,-0.1097,3.526,-4.707,-2.03
1772976574766.8577,-0.977,-0.1258,-0.1102,3.561,-4.646,-2.056
1772976574766.8577,-0.9754,-0.1251,-0.1093,3.596,-4.76,-1.907
1772976574766.8577,-0.9772,-0.1268,-0.1105,3.5,-4.419,-2.126
1772976574766.8577,-0.9787,-0.1257,-0.1105,3.447,-4.366,-2.161
1772976574766.8577,-0.9794,-0.1259,-0.1097,3.509,-4.655,-2.292
1772976574782.6914,-0.979,-0.1272,-0.1109,3.771,-4.751,-2.205
1772976574782.6914,-0.9784,-0.1265,-0.1115,3.57,-4.725,-2.231
1772976574782.6914,-0.9816,-0.1257,-0.1112,3.561,-4.629,-2.056
1772976574782.6914,-0.9816,-0.1277,-0.1141,3.553,-4.375,-2.24
1772976574782.6914,-0.9814,-0.1256,-0.115,3.57,-4.305,-2.459
1772976574782.6914,-0.9809,-0.1284,-0.1113,3.614,-4.349,-2.362
1772976574782.6914,-0.9826,-0.1291,-0.1154,3.579,-4.454,-2.424
1772976574782.6914,-0.9832,-0.1293,-0.1113,3.684,-4.34,-2.354
1772976574782.6914,-0.9834,-0.1284,-0.1141,3.745,-4.253,-2.231
1772976574782.6914,-0.9822,-0.1295,-0.117,3.535,-4.27,-2.459
1772976574782.6914,-0.9814,-0.1278,-0.1162,3.631,-4.287,-2.275
1772976574782.6914,-0.984,-0.1275,-0.1143,3.631,-4.253,-2.354
1772976574782.6914,-0.9845,-0.1276,-0.115,3.684,-4.41,-2.424
1772976574782.6914,-0.9861,-0.1274,-0.1162,3.771,-4.331,-2.249
1772976574798.237,-0.9825,-0.1287,-0.1182,3.596,-4.13,-2.476
1772976574798.237,-0.9815,-0.1303,-0.118,3.482,-3.999,-2.362
1772976574798.237,-0.9833,-0.1296,-0.1182,3.447,-3.955,-2.196
1772976574798.237,-0.9803,-0.1319,-0.1177,3.421,-4.139,-2.231
1772976574798.237,-0.9789,-0.1299,-0.1184,3.491,-4.218,-2.1
1772976574798.237,-0.9789,-0.1307,-0.1162,3.334,-4.112,-2.109
1772976574798.237,-0.9786,-0.1271,-0.1186,3.036,-4.06,-1.942
1772976574798.237,-0.9787,-0.127,-0.1171,2.949,-3.938,-2.074
1772976574798.237,-0.9766,-0.1238,-0.1154,2.765,-4.06,-2.257
1772976574798.237,-0.9783,-0.1226,-0.118,2.669,-4.253,-2.047
1772976574798.237,-0.9751,-0.1215,-0.1177,2.748,-4.428,-1.969
1772976574798.237,-0.972,-0.1213,-0.116,2.748,-4.244,-1.855
1772976574814.2725,-0.9714,-0.1231,-0.1161,2.511,-4.2,-1.951
1772976574814.2725,-0.9726,-0.1241,-0.1174,2.494,-4.34,-2.083
1772976574814.2725,-0.9742,-0.1269,-0.1138,2.756,-4.2,-2.083
1772976574814.2725,-0.9753,-0.1282,-0.1158,2.844,-4.244,-2.083
1772976574814.2725,-0.9798,-0.1308,-0.1162,2.826,-4.244,-1.951
1772976574814.2725,-0.9821,-0.1326,-0.1163,2.835,-4.183,-1.995
1772976574814.2725,-0.9866,-0.1319,-0.1163,2.774,-4.191,-1.969
1772976574814.2725,-0.9864,-0.1327,-0.1147,2.643,-3.868,-1.82
1772976574814.2725,-0.9865,-0.1308,-0.1158,2.651,-3.719,-1.785
1772976574814.2725,-0.9878,-0.1321,-0.1164,2.467,-3.745,-1.671
1772976574814.2725,-0.9869,-0.1312,-0.1149,2.231,-3.754,-1.496
1772976574814.2725,-0.9903,-0.1315,-0.1172,2.459,-3.614,-1.54
1772976574814.2725,-0.9875,-0.1329,-0.1193,2.651,-3.623,-1.383
1772976574830.0525,-0.9864,-0.1333,-0.1206,2.529,-3.605,-1.286
1772976574830.0525,-0.9875,-0.1327,-0.1217,2.441,-3.701,-1.365
1772976574830.0525,-0.987,-0.134,-0.1211,2.397,-3.797,-1.417
1772976574830.0525,-0.9858,-0.1357,-0.1219,2.214,-3.824,-1.216
1772976574830.0525,-0.9848,-0.1347,-0.1238,2.502,-3.763,-1.173
1772976574830.0525,-0.9856,-0.1322,-0.1224,2.607,-3.955,-1.347
1772976574830.0525,-0.9856,-0.1356,-0.1222,2.59,-4.331,-1.137
1772976574830.0525,-0.986,-0.1356,-0.122,2.581,-4.112,-1.295
1772976574830.0525,-0.9837,-0.1337,-0.1232,2.712,-4.209,-1.461
1772976574830.0525,-0.9815,-0.1355,-0.1218,2.774,-4.524,-1.461
1772976574830.0525,-0.9848,-0.134,-0.1219,2.896,-4.646,-1.295
1772976574830.0525,-0.9815,-0.1344,-0.1195,2.651,-4.673,-1.417
1772976574830.0525,-0.9811,-0.134,-0.1175,2.704,-4.454,-1.426
1772976574844.7937,-0.9801,-0.1371,-0.1164,2.721,-4.646,-1.417
1772976574844.7937,-0.979,-0.1365,-0.1177,3.01,-5.031,-1.321
1772976574844.7937,-0.9775,-0.1358,-0.1161,2.922,-5.136,-1.417
1772976574844.7937,-0.977,-0.1354,-0.1124,3.062,-5.031,-1.575
1772976574844.7937,-0.9777,-0.1379,-0.1116,3.141,-4.751,-1.505
1772976574844.7937,-0.9742,-0.1388,-0.1136,3.062,-4.9,-1.505
1772976574844.7937,-0.9764,-0.1376,-0.1133,3.141,-4.839,-1.479
1772976574844.7937,-0.9773,-0.1371,-0.1106,3.08,-4.769,-1.391
1772976574844.7937,-0.976,-0.1354,-0.113,3.15,-4.918,-1.417
1772976574844.7937,-0.9759,-0.1347,-0.1116,3.071,-4.918,-1.251
1772976574844.7937,-0.9772,-0.1354,-0.1105,2.949,-4.76,-1.347
1772976574844.7937,-0.9758,-0.1351,-0.1122,3.036,-4.918,-1.47
1772976574860.7275,-0.9731,-0.1333,-0.1092,3.272,-4.839,-1.321
1772976574860.7275,-0.9726,-0.1308,-0.1095,3.054,-4.515,-1.216
1772976574860.7275,-0.9734,-0.1299,-0.1094,3.019,-4.41,-1.164
1772976574860.7275,-0.9722,-0.1299,-0.1077,3.062,-4.524,-1.067
1772976574860.7275,-0.9706,-0.1295,-0.11,3.062,-4.419,-0.945
1772976574860.7275,-0.9723,-0.1296,-0.1124,3.054,-4.41,-1.024
1772976574860.7275,-0.9708,-0.1301,-0.112,3.089,-4.287,-0.787
1772976574860.7275,-0.9706,-0.131,-0.1109,3.15,-4.357,-0.858
1772976574860.7275,-0.9672,-0.1286,-0.1114,2.94,-4.226,-0.963
1772976574860.7275,-0.9696,-0.1299,-0.1113,2.87,-4.235,-0.98
1772976574860.7275,-0.9688,-0.1301,-0.1113,2.966,-4.287,-0.998
1772976574860.7275,-0.9683,-0.1315,-0.1107,3.027,-4.646,-0.989
1772976574860.7275,-0.9692,-0.1299,-0.1095,2.984,-4.62,-0.752
1772976574876.7737,-0.9692,-0.1313,-0.1096,2.87,-4.305,-0.744
1772976574876.7737,-0.9686,-0.1299,-0.1078,3.071,-4.314,-0.849
1772976574876.7737,-0.9671,-0.1288,-0.1093,3.229,-4.48,-0.963
1772976574876.7737,-0.9665,-0.1318,-0.1058,3.132,-4.611,-0.77
1772976574876.7737,-0.9692,-0.1306,-0.1102,3.036,-4.576,-0.718
1772976574876.7737,-0.9646,-0.1288,-0.1092,3.141,-4.524,-0.787
1772976574876.7737,-0.9659,-0.1286,-0.1102,3.203,-4.655,-0.989
1772976574876.7737,-0.965,-0.128,-0.1102,3.237,-4.541,-1.041
1772976574876.7737,-0.9632,-0.1264,-0.1083,3.29,-4.27,-0.77
1772976574876.7737,-0.9656,-0.1286,-0.1069,3.22,-4.393,-0.691
1772976574876.7737,-0.9643,-0.1268,-0.1078,3.22,-4.734,-0.945
1772976574876.7737,-0.9641,-0.1266,-0.1099,3.342,-4.594,-0.892
1772976574876.7737,-0.9653,-0.1285,-0.111,3.237,-4.576,-0.831
1772976574893.0735,-0.9666,-0.1277,-0.1095,3.124,-4.428,-0.91
1772976574893.0735,-0.9664,-0.1261,-0.111,3.089,-4.629,-0.91
1772976574893.0735,-0.9654,-0.1274,-0.1105,3.29,-4.646,-0.849
1772976574893.0735,-0.9682,-0.1274,-0.1125,3.176,-4.515,-0.647
1772976574893.0735,-0.9661,-0.1268,-0.1135,3.071,-4.734,-0.901
1772976574893.0735,-0.9672,-0.1274,-0.11,3.027,-4.515,-1.006
1772976574893.0735,-0.9705,-0.1247,-0.1118,3.001,-4.314,-1.164
1772976574893.0735,-0.9677,-0.1247,-0.1114,2.966,-4.279,-1.199
1772976574893.0735,-0.9687,-0.1247,-0.1138,3.15,-4.235,-1.199
1772976574893.0735,-0.9723,-0.1238,-0.1144,3.089,-4.244,-1.216
1772976574893.0735,-0.9704,-0.1254,-0.1144,2.712,-4.375,-1.33
1772976574893.0735,-0.972,-0.1244,-0.1138,2.826,-4.183,-1.488
1772976574893.0735,-0.9704,-0.1252,-0.1161,2.853,-4.393,-1.391
1772976574908.6694,-0.9717,-0.1244,-0.1157,2.774,-4.2,-1.496
1772976574908.6694,-0.9735,-0.124,-0.1172,2.835,-4.322,-1.304
1772976574908.6694,-0.9725,-0.127,-0.1141,2.774,-4.567,-1.286
1772976574908.6694,-0.9726,-0.1245,-0.1141,2.721,-4.445,-1.531
1772976574908.6694,-0.9724,-0.1263,-0.1151,2.8,-4.454,-1.312
1772976574908.6694,-0.976,-0.1243,-0.1138,2.87,-4.375,-1.312
1772976574908.6694,-0.9744,-0.1236,-0.1161,2.949,-4.41,-1.426
1772976574908.6694,-0.9755,-0.1243,-0.1174,2.844,-4.524,-1.558
1772976574908.6694,-0.9766,-0.1236,-0.1172,2.835,-4.401,-1.654
1772976574908.6694,-0.9744,-0.1249,-0.1204,2.783,-4.629,-1.75
1772976574908.6694,-0.978,-0.1252,-0.115,2.765,-4.69,-1.645
1772976574908.6694,-0.9769,-0.1252,-0.1166,2.634,-4.428,-1.698
1772976574908.6694,-0.9759,-0.1247,-0.116,2.459,-4.611,-1.837
1772976574924.7183,-0.9784,-0.1263,-0.1182,2.345,-4.707,-2.013
1772976574924.7183,-0.9801,-0.1274,-0.1165,2.415,-4.541,-2.083
1772976574924.7183,-0.9797,-0.1276,-0.1172,2.502,-4.48,-2.17
1772976574924.7183,-0.9784,-0.1269,-0.1143,2.336,-4.454,-2.091
1772976574924.7183,-0.9817,-0.1257,-0.1152,2.266,-4.76,-2.214
1772976574924.7183,-0.9815,-0.1253,-0.1154,2.205,-4.506,-2.004
1772976574924.7183,-0.9788,-0.1281,-0.1188,2.179,-4.445,-2.161
1772976574924.7183,-0.9776,-0.1269,-0.1206,2.065,-4.287,-2.275
1772976574924.7183,-0.9794,-0.1274,-0.1181,2.319,-4.471,-2.004
1772976574924.7183,-0.9794,-0.1263,-0.1161,2.362,-4.742,-2.389
1772976574924.7183,-0.9834,-0.1305,-0.1163,2.091,-4.725,-2.31
1772976574924.7183,-0.9819,-0.1313,-0.1146,2.161,-4.716,-2.109
1772976574939.8696,-0.9834,-0.1305,-0.1168,2.31,-4.62,-2.223
1772976574939.8696,-0.9853,-0.1305,-0.1159,2.17,-4.909,-2.161
1772976574939.8696,-0.9861,-0.1324,-0.1155,2.03,-4.856,-1.942
1772976574939.8696,-0.9863,-0.1343,-0.1145,2.039,-4.786,-1.846
1772976574939.8696,-0.9884,-0.1306,-0.1147,2.013,-4.76,-1.837
1772976574939.8696,-0.9889,-0.1319,-0.1151,1.802,-4.83,-2.013
1772976574939.8696,-0.9871,-0.1322,-0.115,1.89,-4.856,-1.829
1772976574939.8696,-0.988,-0.1338,-0.1152,1.873,-4.664,-1.837
1772976574939.8696,-0.9883,-0.1338,-0.1132,2.126,-4.865,-1.715
1772976574939.8696,-0.9889,-0.1345,-0.1147,2.231,-4.979,-1.636
1772976574939.8696,-0.9863,-0.1358,-0.1148,2.196,-4.944,-1.671
1772976574939.8696,-0.9864,-0.1365,-0.1149,2.188,-4.891,-1.566
1772976574939.8696,-0.9849,-0.1366,-0.1146,2.433,-5.075,-1.619
1772976574955.2026,-0.9854,-0.1391,-0.1141,2.039,-5.084,-1.452
1772976574955.2026,-0.9854,-0.1365,-0.1174,2.065,-5.189,-1.286
1772976574955.2026,-0.9858,-0.137,-0.1167,2.257,-5.276,-1.242
1772976574955.2026,-0.9869,-0.1366,-0.1152,2.109,-5.162,-1.269
1772976574955.2026,-0.9848,-0.1376,-0.1122,2.17,-5.329,-1.251
1772976574955.2026,-0.9807,-0.1379,-0.1157,2.214,-5.197,-1.225
1772976574955.2026,-0.9823,-0.1364,-0.1146,2.328,-5.145,-1.269
1772976574955.2026,-0.9832,-0.1363,-0.1132,2.494,-5.329,-1.216
1772976574955.2026,-0.981,-0.1358,-0.1143,2.433,-5.119,-1.278
1772976574955.2026,-0.9812,-0.1356,-0.1107,2.31,-5.294,-1.251
1772976574955.2026,-0.9806,-0.1361,-0.1133,2.581,-5.338,-1.12
1772976574955.2026,-0.9816,-0.1358,-0.1122,2.607,-5.32,-1.173
1772976574970.7417,-0.9756,-0.1371,-0.1119,2.529,-5.486,-1.155
1772976574970.7417,-0.9787,-0.138,-0.1104,2.581,-5.591,-1.111
1772976574970.7417,-0.9753,-0.1347,-0.1102,2.774,-5.556,-1.199
1772976574970.7417,-0.9757,-0.1357,-0.1104,2.817,-5.556,-1.05
1772976574970.7417,-0.9759,-0.134,-0.1123,2.993,-5.416,-0.901
1772976574970.7417,-0.9778,-0.1345,-0.111,3.071,-5.548,-1.129
1772976574970.7417,-0.9738,-0.1336,-0.1113,3.01,-5.486,-0.875
1772976574970.7417,-0.9764,-0.1333,-0.1142,3.062,-5.6,-1.032
1772976574970.7417,-0.9775,-0.1337,-0.1099,3.08,-5.39,-0.945
1772976574970.7417,-0.9761,-0.1344,-0.111,3.369,-5.399,-1.041
1772976574970.7417,-0.9781,-0.136,-0.1107,3.456,-5.407,-1.094
1772976574970.7417,-0.9752,-0.1363,-0.1127,3.587,-5.442,-1.356
1772976574970.7417,-0.9749,-0.1352,-0.1138,3.439,-5.565,-1.085
1772976574985.8132,-0.9765,-0.1346,-0.112,3.369,-5.574,-1.085
1772976574985.8132,-0.9756,-0.1316,-0.1113,3.377,-5.329,-1.067
1772976574985.8132,-0.9733,-0.1361,-0.1105,3.377,-5.311,-1.234
1772976574985.8132,-0.9721,-0.1347,-0.1119,3.64,-5.635,-1.181
1772976574985.8132,-0.9694,-0.1366,-0.1114,3.509,-5.582,-1.12
1772976574985.8132,-0.9711,-0.1351,-0.111,3.754,-5.504,-1.111
1772976574985.8132,-0.9716,-0.1319,-0.1114,3.631,-5.215,-1.155
1772976574985.8132,-0.9733,-0.1338,-0.1111,3.535,-5.285,-1.225
1772976574985.8132,-0.9717,-0.1296,-0.1108,3.561,-5.285,-0.98
1772976574985.8132,-0.9738,-0.1324,-0.1103,3.675,-5.434,-0.814
1772976574985.8132,-0.9711,-0.1276,-0.1111,3.728,-5.066,-0.814
1772976574985.8132,-0.9712,-0.1281,-0.1144,3.736,-5.416,-0.84
1772976575001.893,-0.9742,-0.128,-0.1133,3.553,-5.294,-0.761
1772976575001.893,-0.9741,-0.1269,-0.1123,3.474,-5.11,-0.805
1772976575001.893,-0.9755,-0.1266,-0.1083,3.544,-5.128,-0.709
1772976575001.893,-0.9755,-0.1258,-0.1038,3.518,-4.891,-0.77
1772976575001.893,-0.9772,-0.1283,-0.1071,3.544,-4.909,-0.665
1772976575001.893,-0.9758,-0.1255,-0.1112,3.465,-4.384,-0.621
1772976575001.893,-0.972,-0.124,-0.1152,3.43,-4.497,-0.394
1772976575001.893,-0.9723,-0.1247,-0.1163,3.526,-4.55,-0.271
1772976575001.893,-0.9725,-0.124,-0.1174,3.369,-4.611,-0.42
1772976575001.893,-0.973,-0.1233,-0.1168,3.246,-4.48,-0.472
1772976575001.893,-0.9722,-0.1218,-0.1184,3.203,-4.506,-0.709
1772976575001.893,-0.9731,-0.1248,-0.1178,3.342,-4.454,-0.752
1772976575001.893,-0.9719,-0.1227,-0.1219,3.124,-4.559,-0.84
1772976575017.1602,-0.9742,-0.1219,-0.1161,3.185,-4.742,-0.613
1772976575017.1602,-0.9726,-0.1216,-0.1173,3.027,-4.646,-0.595
1772976575017.1602,-0.974,-0.1235,-0.12,2.958,-4.725,-0.656
1772976575017.1602,-0.9728,-0.1195,-0.118,3.141,-4.821,-0.7
1772976575017.1602,-0.9726,-0.119,-0.12,3.141,-4.55,-0.613
1772976575017.1602,-0.975,-0.1188,-0.119,2.975,-4.839,-0.499
1772976575017.1602,-0.9755,-0.1182,-0.1194,3.001,-4.996,-0.901
1772976575017.1602,-0.9736,-0.118,-0.1179,3.098,-4.996,-0.744
1772976575017.1602,-0.9751,-0.1171,-0.1167,2.879,-4.812,-0.779
1772976575017.1602,-0.9744,-0.1186,-0.12,3.141,-4.926,-0.971
1772976575017.1602,-0.977,-0.1194,-0.1176,2.931,-4.961,-1.103
1772976575017.1602,-0.9762,-0.1183,-0.116,2.984,-4.944,-1.076
1772976575032.7625,-0.9782,-0.1201,-0.1155,2.853,-4.944,-1.111
1772976575032.7625,-0.9783,-0.1206,-0.1177,3.036,-4.777,-1.155
1772976575032.7625,-0.9758,-0.1214,-0.1166,2.861,-4.856,-1.146
1772976575032.7625,-0.9741,-0.1213,-0.1155,2.599,-4.918,-1.47
1772976575032.7625,-0.9733,-0.1227,-0.1179,2.572,-4.874,-1.234
1772976575032.7625,-0.9748,-0.122,-0.1173,2.835,-5.084,-1.47
1772976575032.7625,-0.977,-0.124,-0.1202,2.678,-4.996,-1.085
1772976575032.7625,-0.9787,-0.1258,-0.1157,2.564,-5.119,-1.286
1772976575032.7625,-0.9772,-0.1222,-0.1185,2.704,-4.952,-1.339
1772976575032.7625,-0.9766,-0.123,-0.1198,2.599,-4.961,-1.417
1772976575032.7625,-0.978,-0.1233,-0.1199,2.502,-4.97,-1.488
1772976575032.7625,-0.9747,-0.123,-0.1161,2.695,-4.97,-1.435
1772976575032.7625,-0.9797,-0.1245,-0.119,2.73,-5.093,-1.61
1772976575048.0994,-0.9762,-0.1251,-0.1185,2.529,-5.058,-1.269
1772976575048.0994,-0.9793,-0.1252,-0.1181,2.809,-5.101,-1.654
1772976575048.0994,-0.979,-0.1256,-0.12,2.739,-5.136,-1.663
1772976575048.0994,-0.9778,-0.126,-0.1185,2.634,-4.865,-1.741
1772976575048.0994,-0.9792,-0.1265,-0.1214,2.844,-5.25,-1.776
1772976575048.0994,-0.981,-0.1271,-0.1172,2.809,-5.189,-1.881
1772976575048.0994,-0.981,-0.1271,-0.1188,2.87,-5.215,-1.724
1772976575048.0994,-0.9792,-0.1274,-0.116,2.721,-5.232,-1.82
1772976575048.0994,-0.9815,-0.1277,-0.1182,2.791,-5.197,-1.706
1772976575048.0994,-0.9794,-0.1261,-0.117,2.73,-5.478,-2.047
1772976575048.0994,-0.9821,-0.1277,-0.1161,2.678,-5.005,-1.89
1772976575048.0994,-0.978,-0.1301,-0.1177,2.817,-5.285,-1.846
1772976575048.0994,-0.98,-0.1297,-0.123,2.835,-5.329,-1.986
1772976575065.0747,-0.9783,-0.129,-0.1224,2.826,-5.504,-1.768
1772976575065.0747,-0.9799,-0.1309,-0.121,2.914,-5.451,-1.802
1772976575065.0747,-0.9778,-0.1306,-0.1232,2.94,-5.504,-1.785
1772976575065.0747,-0.979,-0.1324,-0.1221,3.089,-5.294,-2.065
1772976575065.0747,-0.9793,-0.1319,-0.12,3.01,-5.355,-1.776
1772976575065.0747,-0.9803,-0.1326,-0.1193,2.984,-5.915,-1.89
1772976575065.0747,-0.9806,-0.1349,-0.1206,2.975,-5.644,-2.223
1772976575065.0747,-0.9828,-0.1343,-0.1177,3.316,-5.723,-2.109
1772976575065.0747,-0.9831,-0.1348,-0.1173,3.019,-5.696,-1.881
1772976575065.0747,-0.9806,-0.136,-0.1186,3.106,-5.793,-1.978
1772976575065.0747,-0.9816,-0.1363,-0.1197,3.211,-5.635,-1.776
1772976575065.0747,-0.977,-0.1333,-0.1171,3.203,-5.775,-1.837
1772976575065.0747,-0.9793,-0.136,-0.1169,3.01,-5.478,-1.794
1772976575080.0989,-0.9806,-0.134,-0.1155,3.019,-5.53,-1.802
1772976575080.0989,-0.9786,-0.133,-0.1157,3.01,-5.521,-1.61
1772976575080.0989,-0.9809,-0.1353,-0.1177,3.124,-5.591,-1.873
1772976575080.0989,-0.9803,-0.1337,-0.1164,3.159,-5.582,-1.627
1772976575080.0989,-0.981,-0.1346,-0.1164,2.826,-5.311,-1.68
1772976575080.0989,-0.9801,-0.1328,-0.116,3.141,-5.574,-1.593
1772976575080.0989,-0.9844,-0.1341,-0.1163,2.958,-5.39,-1.531
1772976575080.0989,-0.9806,-0.1336,-0.1152,3.132,-5.442,-1.409
1772976575080.0989,-0.9819,-0.133,-0.1141,3.159,-5.338,-1.295
1772976575080.0989,-0.9788,-0.133,-0.117,3.089,-5.189,-1.619
1772976575080.0989,-0.9795,-0.1327,-0.1168,3.071,-5.206,-1.522
1772976575080.0989,-0.9794,-0.1314,-0.1156,3.001,-5.224,-1.68
1772976575096.0203,-0.9796,-0.1318,-0.1159,3.036,-5.022,-1.54
1772976575096.0203,-0.9788,-0.1318,-0.115,3.272,-5.101,-1.654
1772976575096.0203,-0.9783,-0.1329,-0.1201,3.106,-5.058,-1.645
1772976575096.0203,-0.9787,-0.1341,-0.1158,3.229,-5.162,-1.566
1772976575096.0203,-0.98,-0.1318,-0.1156,3.246,-5.119,-1.321
1772976575096.0203,-0.9789,-0.1313,-0.115,3.01,-5.084,-1.61
1772976575096.0203,-0.9783,-0.1325,-0.1172,3.465,-5.469,-1.531
1772976575096.0203,-0.9783,-0.1312,-0.1157,3.29,-5.022,-1.636
1772976575096.0203,-0.9781,-0.1307,-0.1147,3.325,-4.883,-1.706
1772976575096.0203,-0.976,-0.1319,-0.1132,3.421,-4.979,-1.68
1772976575096.0203,-0.9781,-0.129,-0.1152,3.176,-5.049,-1.689
1772976575096.0203,-0.9791,-0.1327,-0.1151,3.141,-4.812,-1.601
1772976575096.0203,-0.9767,-0.1344,-0.1171,3.237,-5.11,-1.759
1772976575112.0947,-0.9778,-0.1321,-0.1143,3.203,-4.9,-1.593
1772976575112.0947,-0.9773,-0.1344,-0.1175,3.071,-4.707,-1.496
1772976575112.0947,-0.978,-0.1323,-0.1169,3.036,-4.76,-1.383
1772976575112.0947,-0.9801,-0.1333,-0.1141,3.281,-5.066,-1.409
1772976575112.0947,-0.9798,-0.1326,-0.1174,3.36,-4.629,-1.391
1772976575112.0947,-0.9768,-0.1312,-0.1153,3.316,-4.55,-1.417
1772976575112.0947,-0.9792,-0.132,-0.1176,2.993,-4.41,-1.12
1772976575112.0947,-0.978,-0.1324,-0.1171,3.185,-4.567,-1.356
1772976575112.0947,-0.9805,-0.1333,-0.1168,3.15,-4.541,-1.479
1772976575112.0947,-0.9797,-0.1337,-0.1183,3.325,-4.419,-1.356
1772976575112.0947,-0.9799,-0.1292,-0.1236,3.211,-4.664,-1.33
1772976575112.0947,-0.9815,-0.1305,-0.1167,3.246,-4.69,-1.208
1772976575112.0947,-0.9784,-0.1314,-0.1177,3.01,-4.76,-1.208
1772976575128.0625,-0.977,-0.1292,-0.1175,3.115,-4.655,-1.321
1772976575128.0625,-0.9778,-0.1305,-0.1188,3.062,-4.734,-1.059
1772976575128.0625,-0.9767,-0.1302,-0.1171,3.22,-4.716,-1.032
1772976575128.0625,-0.9781,-0.1321,-0.1167,3.062,-4.567,-1.12
1772976575128.0625,-0.9755,-0.1279,-0.1193,3.071,-4.804,-1.199
1772976575128.0625,-0.9775,-0.1313,-0.116,2.975,-4.839,-0.998
1772976575128.0625,-0.9765,-0.1297,-0.1188,3.115,-4.97,-0.963
1772976575128.0625,-0.9761,-0.1276,-0.1179,2.922,-4.944,-0.884
1772976575128.0625,-0.9721,-0.1271,-0.1183,2.879,-4.935,-1.006
1772976575128.0625,-0.974,-0.129,-0.1169,3.036,-4.987,-0.805
1772976575128.0625,-0.9759,-0.1272,-0.1177,2.896,-4.9,-0.709
1772976575128.0625,-0.9738,-0.1282,-0.1183,2.975,-4.926,-0.578
1772976575128.0625,-0.9762,-0.1275,-0.1155,2.993,-4.979,-0.542
1772976575143.0957,-0.9758,-0.1259,-0.1159,2.712,-4.9,-0.403
1772976575143.0957,-0.978,-0.1285,-0.1163,2.765,-5.215,-0.254
1772976575143.0957,-0.9784,-0.1256,-0.1165,2.721,-5.075,-0.438
1772976575143.0957,-0.9767,-0.1264,-0.1156,2.625,-5.101,-0.464
1772976575143.0957,-0.98,-0.1235,-0.1164,2.572,-5.014,-0.394
1772976575143.0957,-0.9753,-0.1241,-0.1154,2.459,-5.075,-0.376
1772976575143.0957,-0.9791,-0.1223,-0.1179,2.599,-5.031,-0.481
1772976575143.0957,-0.9762,-0.1223,-0.1155,2.572,-4.532,-0.481
1772976575143.0957,-0.9744,-0.1218,-0.1157,2.424,-4.839,-0.525
1772976575143.0957,-0.9744,-0.1222,-0.1153,2.371,-5.119,-0.77
1772976575143.0957,-0.9722,-0.1198,-0.1151,2.257,-4.795,-0.726
1772976575143.0957,-0.9733,-0.1202,-0.1154,2.275,-4.952,-0.866
1772976575159.157,-0.9702,-0.1204,-0.1164,2.266,-4.979,-1.059
1772976575159.157,-0.9736,-0.1204,-0.1172,2.205,-4.664,-0.989
1772976575159.157,-0.9716,-0.1204,-0.1138,2.257,-4.865,-0.901
1772976575159.157,-0.9732,-0.121,-0.113,2.275,-4.952,-1.199
1772976575159.157,-0.9736,-0.1196,-0.1111,2.083,-4.839,-1.059
1772976575159.157,-0.9746,-0.1203,-0.1118,2.152,-4.865,-1.234
1772976575159.157,-0.9723,-0.1219,-0.1128,2.292,-4.629,-1.251
1772976575159.157,-0.9701,-0.1204,-0.113,2.179,-4.664,-1.312
1772976575159.157,-0.9747,-0.121,-0.1129,2.179,-4.909,-1.452
1772976575159.157,-0.9738,-0.1209,-0.113,2.144,-4.707,-1.619
1772976575159.157,-0.9717,-0.1225,-0.1108,2.1,-4.742,-1.566
1772976575159.157,-0.9714,-0.1221,-0.1113,2.188,-4.769,-1.593
1772976575159.157,-0.9722,-0.1229,-0.1135,2.161,-4.585,-1.663
1772976575175.051,-0.9715,-0.1253,-0.1154,2.249,-4.646,-1.785
1772976575175.051,-0.9697,-0.1243,-0.1127,2.144,-4.725,-2.021
1772976575175.051,-0.9695,-0.1224,-0.1132,2.231,-4.707,-1.925
1772976575175.051,-0.969,-0.1238,-0.1133,2.371,-4.532,-1.995
1772976575175.051,-0.9717,-0.1258,-0.1128,2.31,-4.69,-2.004
1772976575175.051,-0.972,-0.1258,-0.1154,2.31,-4.777,-1.768
1772976575175.051,-0.9691,-0.1268,-0.1152,2.441,-4.594,-1.916
1772976575175.051,-0.9704,-0.125,-0.1152,2.205,-4.611,-2.039
1772976575175.051,-0.972,-0.1257,-0.1157,2.275,-4.9,-2.45
1772976575175.051,-0.9715,-0.1264,-0.116,2.467,-5.11,-2.275
1772976575175.051,-0.9702,-0.1271,-0.1144,2.669,-5.04,-2.214
1772976575175.051,-0.9694,-0.1264,-0.1139,2.345,-4.821,-1.934
1772976575175.051,-0.9717,-0.1286,-0.1131,2.214,-4.795,-2.083
1772976575190.5974,-0.9692,-0.1282,-0.1143,2.223,-4.751,-2.231
1772976575190.5974,-0.97,-0.1294,-0.1111,2.205,-5.066,-2.152
1772976575190.5974,-0.9711,-0.1282,-0.1103,2.292,-4.891,-2.135
1772976575190.5974,-0.9715,-0.127,-0.1133,2.441,-4.856,-1.934
1772976575190.5974,-0.9712,-0.1287,-0.1116,2.52,-4.673,-1.855
1772976575190.5974,-0.9738,-0.1284,-0.1141,2.415,-5.066,-1.978
1772976575190.5974,-0.9729,-0.1296,-0.1129,2.397,-5.066,-1.978
1772976575190.5974,-0.9727,-0.1304,-0.1128,2.205,-4.664,-2.135
1772976575190.5974,-0.9747,-0.1285,-0.1119,2.328,-4.769,-1.907
1772976575190.5974,-0.9756,-0.129,-0.1135,2.459,-4.76,-1.829
1772976575190.5974,-0.9762,-0.1284,-0.1118,2.336,-4.979,-1.741
1772976575190.5974,-0.977,-0.1307,-0.1117,2.319,-4.865,-1.785
1772976575190.5974,-0.9767,-0.1293,-0.1113,2.354,-4.83,-1.741
1772976575206.6746,-0.977,-0.13,-0.1132,2.266,-4.891,-1.636
1772976575206.6746,-0.9782,-0.1296,-0.1122,2.362,-4.576,-1.724
1772976575206.6746,-0.9776,-0.1288,-0.1142,2.424,-4.55,-1.654
1772976575206.6746,-0.9787,-0.1305,-0.1142,2.538,-4.681,-1.444
1772976575206.6746,-0.9811,-0.1299,-0.1186,2.45,-4.655,-1.593
1772976575206.6746,-0.9789,-0.1325,-0.1151,2.406,-4.777,-1.645
1772976575206.6746,-0.9797,-0.1318,-0.1121,2.328,-4.812,-1.759
1772976575206.6746,-0.9792,-0.1305,-0.1161,2.433,-4.716,-1.671
1772976575206.6746,-0.9796,-0.1327,-0.118,2.529,-4.83,-1.68
1772976575206.6746,-0.9768,-0.1313,-0.1178,2.459,-5.18,-1.479
1772976575206.6746,-0.9783,-0.1305,-0.1157,2.59,-5.04,-1.47
1772976575206.6746,-0.9794,-0.1307,-0.1188,2.59,-5.18,-1.47
1772976575206.6746,-0.9806,-0.1313,-0.1165,2.494,-4.909,-1.374
1772976575222.1938,-0.979,-0.1318,-0.1194,2.336,-5.189,-1.374
1772976575222.1938,-0.9788,-0.1351,-0.1177,2.406,-5.189,-1.312
1772976575222.1938,-0.981,-0.1327,-0.1163,2.712,-5.18,-1.26
1772976575222.1938,-0.9803,-0.133,-0.1135,2.616,-5.171,-1.356
1772976575222.1938,-0.9796,-0.133,-0.1161,2.424,-4.987,-1.137
1772976575222.1938,-0.9812,-0.1335,-0.1188,2.721,-5.031,-1.103
1772976575222.1938,-0.9794,-0.1334,-0.1159,2.765,-5.11,-1.067
1772976575222.1938,-0.981,-0.132,-0.1168,2.607,-5.276,-1.304
1772976575222.1938,-0.9809,-0.1333,-0.1164,2.73,-5.049,-1.094
1772976575222.1938,-0.9787,-0.1326,-0.1134,2.599,-5.031,-1.409
1772976575222.1938,-0.98,-0.1337,-0.1146,2.424,-5.224,-1.164
1772976575222.1938,-0.9806,-0.131,-0.1147,2.529,-5.39,-1.295
1772976575238.6492,-0.9801,-0.13,-0.1134,2.502,-5.224,-1.19
1772976575238.6492,-0.9806,-0.1301,-0.1141,2.572,-5.32,-1.269
1772976575238.6492,-0.98,-0.1302,-0.1147,2.669,-5.372,-1.347
1772976575238.6492,-0.9814,-0.1305,-0.1155,2.546,-4.996,-1.242
1772976575238.6492,-0.9809,-0.1313,-0.1123,2.424,-5.206,-1.347
1772976575238.6492,-0.9795,-0.1293,-0.114,2.555,-5.066,-1.225
1772976575238.6492,-0.9792,-0.1292,-0.1151,2.433,-4.944,-1.137
1772976575238.6492,-0.9812,-0.1297,-0.1168,2.817,-4.996,-1.164
1772976575238.6492,-0.9823,-0.1286,-0.1168,2.538,-4.97,-1.103
1772976575238.6492,-0.9792,-0.1299,-0.1171,2.66,-4.874,-1.321
1772976575238.6492,-0.9805,-0.1288,-0.117,2.538,-4.848,-1.347
1772976575238.6492,-0.9811,-0.129,-0.1145,2.564,-4.918,-1.383
1772976575238.6492,-0.9805,-0.1282,-0.1159,2.774,-5.014,-1.531
1772976575238.6492,-0.9795,-0.128,-0.115,2.739,-4.961,-1.304
1772976575253.9822,-0.9788,-0.1277,-0.1177,2.607,-4.987,-1.383
1772976575253.9822,-0.9815,-0.1258,-0.1128,2.581,-5.093,-1.374
1772976575253.9822,-0.9844,-0.1279,-0.1081,2.625,-4.576,-1.383
1772976575253.9822,-0.979,-0.1263,-0.1141,2.546,-4.375,-1.234
1772976575253.9822,-0.9799,-0.1268,-0.1191,2.8,-4.585,-1.496
1772976575253.9822,-0.978,-0.1286,-0.1202,2.651,-4.603,-1.54
1772976575253.9822,-0.9754,-0.1269,-0.1187,2.511,-4.515,-1.137
1772976575253.9822,-0.9754,-0.1245,-0.1193,2.625,-4.375,-0.927
1772976575253.9822,-0.9756,-0.1261,-0.1198,2.389,-4.506,-1.032
1772976575253.9822,-0.974,-0.1257,-0.1196,2.336,-4.673,-1.278
1772976575253.9822,-0.9736,-0.1233,-0.1169,2.485,-4.629,-1.505
1772976575253.9822,-0.9726,-0.1228,-0.1185,2.31,-4.664,-1.645
1772976575269.573,-0.9757,-0.1218,-0.1177,2.319,-4.673,-1.505
1772976575269.573,-0.9723,-0.1236,-0.1171,2.205,-4.76,-1.54
1772976575269.573,-0.9726,-0.1233,-0.1179,2.161,-4.62,-1.19
1772976575269.573,-0.9725,-0.1211,-0.1148,2.109,-4.987,-1.54
1772976575269.573,-0.9714,-0.1177,-0.1168,2.336,-4.987,-1.645
1772976575269.573,-0.9726,-0.1204,-0.1162,2.17,-4.83,-1.829
1772976575269.573,-0.9696,-0.1208,-0.1155,1.802,-4.856,-1.951
1772976575269.573,-0.9714,-0.1215,-0.1154,1.811,-5.066,-1.663
1772976575269.573,-0.9734,-0.1197,-0.1167,1.899,-5.014,-1.689
1772976575269.573,-0.9719,-0.1191,-0.1169,2.126,-4.996,-1.741
1772976575269.573,-0.9764,-0.1207,-0.1147,2.013,-4.952,-2.039
1772976575269.573,-0.9737,-0.1222,-0.1143,2.083,-4.996,-1.942
1772976575269.573,-0.9731,-0.1211,-0.1124,1.802,-4.944,-2.188
1772976575285.1545,-0.9732,-0.1185,-0.1177,1.741,-5.022,-2.013
1772976575285.1545,-0.9719,-0.1213,-0.1156,1.759,-4.489,-2.179
1772976575285.1545,-0.9728,-0.1223,-0.1168,1.68,-4.55,-2.1
1772976575285.1545,-0.9746,-0.1229,-0.1177,1.732,-4.673,-2.144
1772976575285.1545,-0.9741,-0.1243,-0.1179,1.75,-4.541,-2.336
1772976575285.1545,-0.9749,-0.1244,-0.1151,1.846,-4.742,-2.275
1772976575285.1545,-0.9743,-0.1251,-0.1154,1.715,-4.559,-2.336
1772976575285.1545,-0.9733,-0.1249,-0.1175,1.601,-4.445,-2.284
1772976575285.1545,-0.9712,-0.126,-0.1141,1.452,-4.699,-2.52
1772976575285.1545,-0.9697,-0.1268,-0.1161,1.549,-4.235,-2.651
1772976575285.1545,-0.97,-0.1264,-0.1138,1.706,-4.76,-2.555
1772976575285.1545,-0.9703,-0.1258,-0.1187,1.461,-4.865,-2.599
1772976575301.0544,-0.9703,-0.1263,-0.1152,1.732,-4.883,-2.257
1772976575301.0544,-0.9695,-0.1267,-0.1184,1.619,-4.821,-2.214
1772976575301.0544,-0.9686,-0.1297,-0.117,1.636,-4.883,-2.074
1772976575301.0544,-0.9692,-0.1275,-0.1174,1.715,-4.996,-2.284
1772976575301.0544,-0.9705,-0.1265,-0.115,1.496,-4.979,-2.31
1772976575301.0544,-0.9678,-0.1277,-0.1149,1.593,-5.049,-2.047
1772976575301.0544,-0.9697,-0.1275,-0.1127,1.575,-5.084,-2.161
1772976575301.0544,-0.9704,-0.1294,-0.1136,1.942,-5.451,-2.205
1772976575301.0544,-0.9703,-0.1307,-0.1125,1.881,-5.224,-2.065
1772976575301.0544,-0.9706,-0.1312,-0.1153,1.89,-5.276,-2.336
1772976575301.0544,-0.9711,-0.1304,-0.1137,1.768,-5.005,-2.275
1772976575301.0544,-0.9731,-0.1306,-0.115,1.864,-5.04,-2.345
1772976575301.0544,-0.9725,-0.1294,-0.1141,1.846,-5.189,-2.188
1772976575317.0884,-0.9745,-0.1305,-0.1157,1.881,-5.197,-2.065
1772976575317.0884,-0.9736,-0.1329,-0.1161,1.75,-5.136,-2.109
1772976575317.0884,-0.975,-0.1318,-0.1178,2.039,-5.338,-2.214
1772976575317.0884,-0.9769,-0.1335,-0.1164,2.056,-5.303,-2.249
1772976575317.0884,-0.9784,-0.133,-0.1145,1.978,-5.232,-2.223
1772976575317.0884,-0.9762,-0.1316,-0.1164,2.126,-5.093,-2.109
1772976575317.0884,-0.9769,-0.1333,-0.115,2.013,-5.11,-2.065
1772976575317.0884,-0.9786,-0.1319,-0.1158,1.951,-5.224,-1.89
1772976575317.0884,-0.9807,-0.1324,-0.1154,2.083,-5.145,-1.768
1772976575317.0884,-0.9809,-0.1354,-0.1177,1.986,-5.206,-1.636
1772976575317.0884,-0.9823,-0.1343,-0.1174,2.047,-5.206,-1.811
1772976575317.0884,-0.9786,-0.1326,-0.1193,1.986,-5.049,-1.916
1772976575317.0884,-0.983,-0.1354,-0.1201,2.047,-5.232,-1.899
1772976575331.6292,-0.9848,-0.1343,-0.1166,2.336,-5.285,-1.715
1772976575331.6292,-0.9873,-0.1368,-0.1199,2.118,-5.469,-1.645
1772976575331.6292,-0.9863,-0.1362,-0.119,2.301,-5.162,-1.522
1772976575331.6292,-0.9856,-0.1357,-0.1194,2.319,-5.189,-1.47
1772976575331.6292,-0.9861,-0.1341,-0.1176,2.397,-5.206,-1.601
1772976575331.6292,-0.9859,-0.1359,-0.1203,2.223,-5.066,-1.522
1772976575331.6292,-0.9859,-0.1324,-0.1179,2.214,-5.346,-1.522
1772976575331.6292,-0.986,-0.1356,-0.1185,2.45,-5.416,-1.374
1772976575331.6292,-0.9858,-0.1359,-0.1204,2.345,-5.364,-1.365
1772976575331.6292,-0.9858,-0.1344,-0.1206,2.502,-5.311,-1.181
1772976575331.6292,-0.988,-0.1327,-0.1194,2.389,-5.521,-1.006
1772976575331.6292,-0.9886,-0.1357,-0.1188,2.739,-5.39,-1.076
1772976575347.2,-0.9875,-0.1349,-0.1193,2.607,-5.46,-1.242
1772976575347.2,-0.9847,-0.1348,-0.1203,2.511,-5.565,-1.146
1772976575347.2,-0.9847,-0.1319,-0.1188,2.678,-5.276,-1.391
1772976575347.2,-0.9851,-0.134,-0.119,2.686,-5.565,-1.505
1772976575347.2,-0.9828,-0.135,-0.1211,2.678,-5.46,-1.173
1772976575347.2,-0.9841,-0.132,-0.1207,2.756,-5.32,-1.19
1772976575347.2,-0.9847,-0.1315,-0.1181,2.975,-5.723,-1.251
1772976575347.2,-0.9842,-0.1324,-0.1197,2.774,-5.434,-1.304
1772976575347.2,-0.9834,-0.1303,-0.1188,2.958,-5.617,-1.286
1772976575347.2,-0.9839,-0.1318,-0.1193,2.791,-5.644,-1.312
1772976575347.2,-0.9822,-0.1314,-0.1189,2.844,-5.696,-1.391
1772976575347.2,-0.9817,-0.1279,-0.1183,2.879,-5.793,-1.33
1772976575347.2,-0.9805,-0.1292,-0.1167,2.835,-5.626,-1.479
1772976575362.7212,-0.9823,-0.1302,-0.1157,2.949,-5.626,-1.505
1772976575362.7212,-0.9827,-0.1258,-0.117,2.896,-5.635,-1.558
1772976575362.7212,-0.9809,-0.1281,-0.1167,2.931,-5.513,-1.409
1772976575362.7212,-0.9814,-0.1294,-0.1179,3.019,-5.372,-1.566
1772976575362.7212,-0.9826,-0.1282,-0.1173,2.791,-5.574,-1.479
1772976575362.7212,-0.9806,-0.1266,-0.1171,2.879,-5.582,-1.558
1772976575362.7212,-0.981,-0.1261,-0.12,3.001,-5.381,-1.759
1772976575362.7212,-0.979,-0.1252,-0.1172,2.835,-5.329,-1.627
1772976575362.7212,-0.9784,-0.126,-0.1169,2.993,-5.39,-1.54
1772976575362.7212,-0.9777,-0.1258,-0.1166,2.809,-5.407,-1.593
1772976575362.7212,-0.9781,-0.1254,-0.1201,3.027,-5.591,-1.619
1772976575362.7212,-0.9755,-0.1265,-0.1189,3.01,-5.311,-1.566
1772976575378.2876,-0.9756,-0.1269,-0.1215,3.054,-5.154,-1.768
1772976575378.2876,-0.9719,-0.1268,-0.12,2.896,-5.206,-1.566
1772976575378.2876,-0.9729,-0.1271,-0.1183,2.94,-5.32,-1.706
1772976575378.2876,-0.9753,-0.126,-0.1212,2.879,-5.197,-1.776
1772976575378.2876,-0.9737,-0.1257,-0.1199,2.984,-5.338,-1.601
1772976575378.2876,-0.972,-0.1252,-0.1214,2.756,-5.215,-1.636
1772976575378.2876,-0.974,-0.124,-0.1203,2.809,-5.197,-1.566
1772976575378.2876,-0.9737,-0.1257,-0.1197,2.8,-5.145,-1.75
1772976575378.2876,-0.9725,-0.1241,-0.1228,2.73,-5.32,-1.698
1772976575378.2876,-0.9728,-0.124,-0.1208,2.371,-5.022,-1.785
1772976575378.2876,-0.9715,-0.1229,-0.1207,2.362,-5.014,-1.785
1772976575378.2876,-0.9712,-0.1211,-0.1194,2.24,-5.162,-1.575
1772976575378.2876,-0.9739,-0.123,-0.1201,2.257,-4.961,-1.488
1772976575393.747,-0.972,-0.122,-0.1181,2.424,-5.206,-1.627
1772976575393.747,-0.9733,-0.1241,-0.1196,2.45,-5.084,-1.435
1772976575393.747,-0.9723,-0.1236,-0.1208,2.223,-5.075,-1.601
1772976575393.747,-0.9729,-0.123,-0.119,2.179,-4.883,-1.383
1772976575393.747,-0.9721,-0.1218,-0.1204,2.257,-4.883,-1.26
1772976575393.747,-0.974,-0.1254,-0.1202,2.319,-4.699,-1.47
1772976575393.747,-0.974,-0.1257,-0.1236,2.424,-4.909,-1.435
1772976575393.747,-0.9741,-0.1265,-0.123,2.24,-5.084,-1.409
1772976575393.747,-0.9736,-0.1259,-0.1244,2.31,-5.031,-1.304
1772976575393.747,-0.9743,-0.1271,-0.1214,2.301,-5.04,-1.173
1772976575393.747,-0.9755,-0.1263,-0.1215,2.371,-4.952,-1.304
1772976575393.747,-0.9737,-0.1258,-0.1218,2.284,-5.206,-1.278
1772976575393.747,-0.9746,-0.1276,-0.1241,2.345,-4.909,-1.444
1772976575408.7737,-0.9734,-0.1279,-0.1221,2.415,-5.119,-1.383
1772976575408.7737,-0.9729,-0.1272,-0.1209,2.546,-5.189,-1.505
1772976575408.7737,-0.9716,-0.1271,-0.1202,2.616,-5.232,-1.094
1772976575408.7737,-0.9721,-0.1279,-0.1198,2.45,-5.206,-0.892
1772976575408.7737,-0.973,-0.128,-0.1188,2.38,-5.014,-1.076
1772976575408.7737,-0.9754,-0.1285,-0.1199,2.397,-5.276,-1.409
1772976575408.7737,-0.9758,-0.1278,-0.119,2.38,-5.303,-1.269
1772976575408.7737,-0.9736,-0.1274,-0.1184,2.397,-5.53,-1.19
1772976575408.7737,-0.9743,-0.1274,-0.1173,2.581,-5.574,-1.085
1772976575408.7737,-0.9746,-0.1281,-0.1193,2.529,-5.495,-1.173
1772976575408.7737,-0.9762,-0.128,-0.1179,2.616,-5.442,-1.155
1772976575408.7737,-0.9727,-0.1278,-0.1181,2.564,-5.53,-1.19
1772976575424.609,-0.9751,-0.1297,-0.1179,2.625,-5.652,-1.304
1772976575424.609,-0.9755,-0.1272,-0.1194,2.835,-5.723,-1.067
1772976575424.609,-0.9752,-0.1296,-0.1162,2.879,-5.451,-1.208
1772976575424.609,-0.9755,-0.1295,-0.1161,2.844,-5.644,-1.426
1772976575424.609,-0.9758,-0.1288,-0.1163,2.896,-5.67,-1.19
1772976575424.609,-0.975,-0.126,-0.1161,3.176,-5.766,-1.295
1772976575424.609,-0.9751,-0.1282,-0.1147,3.115,-5.827,-1.496
1772976575424.609,-0.976,-0.1284,-0.1154,3.211,-5.95,-1.295
1772976575424.609,-0.9767,-0.1273,-0.1134,3.281,-5.635,-1.417
1772976575424.609,-0.9776,-0.1309,-0.1122,3.325,-5.784,-1.225
1772976575424.609,-0.9778,-0.1327,-0.1123,3.281,-5.845,-1.365
1772976575424.609,-0.9765,-0.1293,-0.1119,3.308,-5.696,-1.208
1772976575424.609,-0.9775,-0.1312,-0.1121,3.299,-5.976,-1.26
1772976575440.4224,-0.9795,-0.1294,-0.1104,3.447,-5.836,-1.435
1772976575440.4224,-0.9788,-0.1313,-0.1098,3.325,-5.714,-1.575
1772976575440.4224,-0.9778,-0.1303,-0.1114,3.404,-5.6,-1.47
1772976575440.4224,-0.9786,-0.1315,-0.1127,3.342,-5.67,-1.33
1772976575440.4224,-0.9761,-0.1311,-0.1094,3.124,-5.582,-1.208
1772976575440.4224,-0.9762,-0.1301,-0.1144,3.404,-5.591,-1.129
1772976575440.4224,-0.9748,-0.1306,-0.1141,3.421,-5.53,-1.54
1772976575440.4224,-0.9769,-0.1296,-0.1149,3.439,-5.285,-1.234
1772976575440.4224,-0.9767,-0.1274,-0.1166,3.272,-5.425,-1.076
1772976575440.4224,-0.9782,-0.1294,-0.1144,3.518,-5.862,-1.05
1772976575440.4224,-0.9798,-0.1262,-0.112,3.587,-5.871,-1.041
1772976575440.4224,-0.9811,-0.1252,-0.0992,3.684,-5.688,-1.199
1772976575455.9028,-0.9806,-0.128,-0.1041,3.754,-5.469,-1.278
1772976575455.9028,-0.9805,-0.1281,-0.1128,3.64,-5.162,-1.242
1772976575455.9028,-0.9737,-0.1252,-0.1188,3.789,-4.918,-1.059
1772976575455.9028,-0.9759,-0.1264,-0.1179,3.92,-4.734,-1.321
1772976575455.9028,-0.9739,-0.1266,-0.1183,3.535,-4.848,-1.488
1772976575455.9028,-0.9756,-0.1271,-0.1181,3.5,-4.935,-1.391
1772976575455.9028,-0.9764,-0.1249,-0.1181,3.587,-4.952,-1.26
1772976575455.9028,-0.9764,-0.1216,-0.117,3.421,-5.04,-1.278
1772976575455.9028,-0.9746,-0.1226,-0.1175,3.299,-5.005,-1.584
1772976575455.9028,-0.974,-0.1244,-0.1155,3.308,-5.259,-1.47
1772976575455.9028,-0.9752,-0.1224,-0.1138,3.106,-5.18,-1.26
1772976575455.9028,-0.9747,-0.1256,-0.1165,3.167,-5.084,-1.286
1772976575455.9028,-0.9794,-0.1229,-0.1146,3.001,-4.996,-1.4
1772976575471.786,-0.9779,-0.1243,-0.1211,2.984,-4.961,-1.488
1772976575471.786,-0.9797,-0.1235,-0.1163,3.15,-4.742,-1.242
1772976575471.786,-0.9753,-0.1236,-0.1193,2.975,-4.979,-1.33
1772976575471.786,-0.9773,-0.1218,-0.12,2.993,-4.926,-1.365
1772976575471.786,-0.9776,-0.1224,-0.1212,2.73,-4.935,-1.575
1772976575471.786,-0.98,-0.1225,-0.1198,2.494,-4.9,-1.435
1772976575471.786,-0.98,-0.1227,-0.121,2.616,-5.119,-1.391
1772976575471.786,-0.9794,-0.1225,-0.1216,2.765,-4.961,-1.479
1772976575471.786,-0.9788,-0.1226,-0.1219,2.546,-4.961,-1.479
1772976575471.786,-0.9775,-0.1218,-0.1216,2.502,-4.848,-1.47
1772976575471.786,-0.9792,-0.124,-0.1205,2.651,-5.128,-1.514
1772976575471.786,-0.9788,-0.1261,-0.1222,2.572,-5.005,-1.61
1772976575471.786,-0.9786,-0.1254,-0.1202,2.712,-5.154,-1.452
1772976575487.6907,-0.9813,-0.1278,-0.1209,2.643,-5.25,-1.671
1772976575487.6907,-0.9796,-0.125,-0.1198,2.73,-5.206,-1.531
1772976575487.6907,-0.9816,-0.1272,-0.1207,2.564,-5.075,-1.496
1772976575487.6907,-0.9805,-0.1272,-0.1208,2.607,-5.04,-1.61
1772976575487.6907,-0.9812,-0.1286,-0.1197,2.415,-5.197,-1.409
1772976575487.6907,-0.981,-0.1271,-0.1188,2.354,-5.364,-1.566
1772976575487.6907,-0.9806,-0.1292,-0.1207,2.362,-5.364,-1.698
1772976575487.6907,-0.9792,-0.1296,-0.1234,2.45,-5.093,-1.671
1772976575487.6907,-0.9794,-0.129,-0.1225,2.397,-5.294,-1.802
1772976575487.6907,-0.9777,-0.1279,-0.1203,2.301,-5.548,-1.837
1772976575487.6907,-0.9779,-0.1277,-0.1246,2.441,-5.434,-1.514
1772976575487.6907,-0.981,-0.1296,-0.1211,2.529,-5.031,-1.732
1772976575487.6907,-0.9792,-0.1276,-0.1189,2.45,-5.04,-1.514
1772976575503.0518,-0.9755,-0.1286,-0.1221,2.275,-5.128,-1.619
1772976575503.0518,-0.9762,-0.1311,-0.1204,2.17,-5.154,-1.671
1772976575503.0518,-0.9755,-0.1321,-0.12,2.275,-5.232,-1.627
1772976575503.0518,-0.9769,-0.1313,-0.1166,2.328,-5.504,-1.488
1772976575503.0518,-0.9776,-0.1318,-0.1207,2.284,-5.416,-1.444
1772976575503.0518,-0.9764,-0.1307,-0.1194,2.257,-5.504,-1.199
1772976575503.0518,-0.9743,-0.1308,-0.1193,2.502,-5.574,-1.234
1772976575503.0518,-0.9756,-0.1327,-0.1169,2.415,-5.478,-1.164
1772976575503.0518,-0.9752,-0.1316,-0.117,2.433,-5.311,-1.452
1772976575503.0518,-0.9764,-0.1317,-0.118,2.555,-5.399,-1.339
1772976575503.0518,-0.9746,-0.1301,-0.116,2.581,-5.311,-1.216
1772976575503.0518,-0.9736,-0.1301,-0.1166,2.52,-5.565,-1.295
1772976575518.1538,-0.9748,-0.1302,-0.1158,2.73,-5.294,-1.278
1772976575518.1538,-0.9759,-0.1306,-0.1144,2.616,-5.6,-1.488
1772976575518.1538,-0.9747,-0.1342,-0.1144,2.529,-5.591,-1.286
1772976575518.1538,-0.9742,-0.1336,-0.1146,2.625,-5.46,-1.12
1772976575518.1538,-0.9723,-0.1323,-0.1138,2.669,-5.705,-1.208
1772976575518.1538,-0.9734,-0.1344,-0.1121,2.739,-5.495,-1.505
1772976575518.1538,-0.9715,-0.132,-0.1112,2.896,-5.617,-1.488
1772976575518.1538,-0.9736,-0.1344,-0.1138,2.888,-5.416,-1.085
1772976575518.1538,-0.97,-0.1301,-0.1122,3.019,-5.565,-1.085
1772976575518.1538,-0.9721,-0.1302,-0.1147,3.132,-5.556,-1.05
1772976575518.1538,-0.9708,-0.1339,-0.1151,3.115,-5.285,-1.024
1772976575518.1538,-0.972,-0.1325,-0.1139,3.185,-5.32,-1.26
1772976575533.738,-0.9719,-0.1339,-0.1152,3.211,-5.451,-1.312
1772976575533.738,-0.9719,-0.1299,-0.1158,3.089,-5.46,-1.129
1772976575533.738,-0.974,-0.1314,-0.1122,3.036,-5.268,-0.945
1772976575533.738,-0.9734,-0.1297,-0.1141,3.255,-5.425,-0.927
1772976575533.738,-0.9721,-0.1333,-0.1143,3.325,-5.504,-0.945
1772976575533.738,-0.9748,-0.1318,-0.1157,3.342,-5.442,-1.137
1772976575533.738,-0.9751,-0.1309,-0.1138,3.439,-5.46,-0.971
1772976575533.738,-0.974,-0.1286,-0.1177,3.01,-5.434,-0.823
1772976575533.738,-0.9739,-0.1293,-0.1172,3.08,-5.434,-0.682
1772976575533.738,-0.9756,-0.1289,-0.1177,3.167,-5.46,-0.796
1772976575533.738,-0.9749,-0.1278,-0.1169,3.176,-5.364,-0.936
1772976575533.738,-0.9761,-0.1268,-0.1179,3.08,-5.346,-0.945
1772976575533.738,-0.9765,-0.1258,-0.1188,3.001,-5.206,-0.91
1772976575549.7666,-0.974,-0.126,-0.1219,2.975,-5.346,-0.744
1772976575549.7666,-0.9762,-0.1258,-0.1207,2.905,-5.39,-0.849
1772976575549.7666,-0.9761,-0.125,-0.1175,3.01,-5.521,-0.831
1772976575549.7666,-0.9762,-0.1257,-0.1207,2.958,-5.154,-0.919
1772976575549.7666,-0.9792,-0.1276,-0.1197,3.141,-5.154,-0.91
1772976575549.7666,-0.9798,-0.1258,-0.1214,2.922,-5.294,-0.998
1772976575549.7666,-0.9782,-0.1266,-0.1193,3.036,-5.241,-1.015
1772976575549.7666,-0.9795,-0.1271,-0.1175,2.984,-5.162,-1.015
1772976575549.7666,-0.9793,-0.1296,-0.1203,3.325,-5.303,-1.024
1772976575549.7666,-0.9802,-0.1275,-0.1208,3.308,-5.495,-1.015
1772976575549.7666,-0.9805,-0.1272,-0.1216,3.526,-5.425,-1.173
1772976575549.7666,-0.9803,-0.129,-0.1223,3.176,-5.241,-1.225
1772976575549.7666,-0.9813,-0.1288,-0.121,3.36,-5.407,-1.444
1772976575565.8374,-0.9822,-0.1291,-0.1195,3.281,-5.303,-1.514
1772976575565.8374,-0.9844,-0.1279,-0.1199,3.351,-5.232,-1.54
1772976575565.8374,-0.9815,-0.1279,-0.1221,3.447,-5.644,-1.724
1772976575565.8374,-0.9822,-0.1285,-0.1186,3.299,-5.486,-1.584
1772976575565.8374,-0.9806,-0.1276,-0.1218,3.281,-5.451,-1.365
1772976575565.8374,-0.98,-0.1263,-0.1213,3.482,-5.303,-1.488
1772976575565.8374,-0.9795,-0.1272,-0.1208,3.316,-5.495,-1.566
1772976575565.8374,-0.98,-0.1276,-0.1204,3.342,-5.285,-1.409
1772976575565.8374,-0.9796,-0.1284,-0.1201,3.342,-5.801,-1.584
1772976575565.8374,-0.9799,-0.1276,-0.1217,3.413,-5.539,-1.601
1772976575565.8374,-0.9791,-0.1261,-0.1183,3.316,-5.372,-1.593
1772976575565.8374,-0.9781,-0.1296,-0.1163,3.369,-5.294,-1.54
1772976575565.8374,-0.9807,-0.1271,-0.1119,3.518,-5.355,-1.663
1772976575581.7717,-0.9816,-0.1271,-0.1139,3.465,-5.372,-1.584
1772976575581.7717,-0.9771,-0.1263,-0.1179,3.456,-5.346,-1.61
1772976575581.7717,-0.975,-0.1272,-0.1171,3.334,-4.952,-1.558
1772976575581.7717,-0.9764,-0.1269,-0.1196,3.491,-5.101,-1.347
1772976575581.7717,-0.9745,-0.128,-0.116,3.535,-4.839,-1.522
1772976575581.7717,-0.9738,-0.1276,-0.1152,3.404,-5.171,-1.488
1772976575581.7717,-0.9773,-0.1261,-0.1176,3.299,-5.215,-1.549
1772976575581.7717,-0.9755,-0.126,-0.1172,3.132,-4.952,-1.435
1772976575581.7717,-0.972,-0.1271,-0.1171,3.246,-4.9,-1.496
1772976575581.7717,-0.9728,-0.1283,-0.1163,3.167,-5.119,-1.54
1772976575581.7717,-0.9725,-0.129,-0.1143,3.211,-4.9,-1.619
1772976575581.7717,-0.9723,-0.1282,-0.116,3.325,-4.821,-1.479
1772976575581.7717,-0.972,-0.1268,-0.1154,3.351,-4.795,-1.409
1772976575597.8633,-0.9761,-0.1265,-0.1144,3.194,-4.655,-1.365
1772976575597.8633,-0.9722,-0.1268,-0.1153,3.106,-4.918,-1.663
1772976575597.8633,-0.9723,-0.1253,-0.1146,3.255,-4.909,-1.575
1772976575597.8633,-0.9738,-0.1268,-0.1136,3.141,-4.891,-1.514
1772976575597.8633,-0.9751,-0.1253,-0.1159,3.08,-4.909,-1.68
1772976575597.8633,-0.9737,-0.1247,-0.1171,3.115,-4.891,-1.47
1772976575597.8633,-0.9735,-0.1262,-0.1176,3.106,-4.926,-1.566
1772976575597.8633,-0.9739,-0.1261,-0.1152,3.203,-4.926,-1.619
1772976575597.8633,-0.9749,-0.1272,-0.1172,2.966,-4.979,-1.636
1772976575597.8633,-0.975,-0.1289,-0.1164,2.922,-5.005,-1.645
1772976575597.8633,-0.9734,-0.1283,-0.1177,3.062,-4.734,-1.566
1772976575597.8633,-0.974,-0.1271,-0.1168,3.115,-4.742,-1.715
1772976575597.8633,-0.9731,-0.1262,-0.1167,2.949,-5.031,-1.811
1772976575614.7502,-0.9734,-0.1245,-0.119,2.949,-4.952,-1.864
1772976575614.7502,-0.9751,-0.1278,-0.1183,2.914,-5.031,-1.75
1772976575614.7502,-0.9747,-0.1268,-0.1197,2.826,-4.812,-1.934
1772976575614.7502,-0.975,-0.1263,-0.1215,2.651,-4.716,-1.732
1772976575614.7502,-0.9751,-0.1259,-0.1183,2.914,-4.786,-1.864
1772976575614.7502,-0.9748,-0.1263,-0.1182,2.669,-4.935,-1.794
1772976575614.7502,-0.9736,-0.1271,-0.1176,2.555,-4.996,-1.794
1772976575614.7502,-0.974,-0.128,-0.1183,2.599,-4.979,-2.039
1772976575614.7502,-0.9745,-0.1286,-0.118,2.634,-4.725,-1.942
1772976575614.7502,-0.9748,-0.1302,-0.1169,2.564,-4.944,-2.074
1772976575614.7502,-0.9751,-0.1282,-0.1149,2.459,-5.189,-2.144
1772976575614.7502,-0.9764,-0.1258,-0.1171,2.45,-5.128,-2.03
1772976575614.7502,-0.9774,-0.1276,-0.1177,2.424,-5.294,-1.916
1772976575614.7502,-0.9766,-0.1293,-0.1175,2.538,-5.022,-1.864
1772976575629.777,-0.9765,-0.1297,-0.1165,2.433,-5.093,-1.995
1772976575629.777,-0.9782,-0.1302,-0.1175,2.354,-5.215,-1.899
1772976575629.777,-0.9757,-0.1294,-0.1138,2.24,-5.014,-2.039
1772976575629.777,-0.9789,-0.128,-0.1113,2.126,-4.865,-1.995
1772976575629.777,-0.9777,-0.1296,-0.1146,2.257,-4.918,-1.706
1772976575629.777,-0.975,-0.1292,-0.12,2.118,-4.952,-1.802
1772976575629.777,-0.9753,-0.1315,-0.1222,2.362,-5.101,-1.881
1772976575629.777,-0.9739,-0.1302,-0.1219,2.397,-4.856,-1.636
1772976575629.777,-0.9764,-0.1301,-0.1227,2.371,-4.83,-1.488
1772976575629.777,-0.9759,-0.1319,-0.1201,2.231,-4.69,-1.496
1772976575629.777,-0.9735,-0.1321,-0.1213,2.292,-4.769,-1.61
1772976575629.777,-0.9759,-0.1312,-0.1217,2.406,-5.014,-1.549
1772976575645.8066,-0.9772,-0.1323,-0.1227,2.45,-5.338,-1.54
1772976575645.8066,-0.9775,-0.1327,-0.1216,2.284,-5.635,-1.417
1772976575645.8066,-0.9777,-0.1301,-0.1194,2.17,-5.6,-1.365
1772976575645.8066,-0.977,-0.1307,-0.1199,1.951,-5.53,-1.321
1772976575645.8066,-0.9809,-0.1313,-0.1175,1.907,-5.705,-1.54
1772976575645.8066,-0.9803,-0.1286,-0.1187,1.776,-5.556,-1.663
1772976575645.8066,-0.982,-0.1274,-0.1186,1.794,-5.399,-1.295
1772976575645.8066,-0.9809,-0.1293,-0.1188,1.794,-5.407,-1.47
1772976575645.8066,-0.9826,-0.1274,-0.1158,1.907,-5.556,-1.444
1772976575645.8066,-0.9844,-0.1289,-0.1162,1.978,-5.609,-1.251
1772976575645.8066,-0.9814,-0.1296,-0.1138,2.021,-5.486,-1.111
1772976575645.8066,-0.9812,-0.1258,-0.1154,2.047,-5.696,-1.19
1772976575645.8066,-0.9806,-0.1265,-0.1163,2.065,-5.626,-1.041
1772976575660.8303,-0.9775,-0.1277,-0.116,1.934,-5.39,-1.234
1772976575660.8303,-0.9792,-0.1253,-0.1152,2.065,-5.652,-1.05
1772976575660.8303,-0.98,-0.1238,-0.1149,2.24,-5.521,-0.98
1772976575660.8303,-0.9805,-0.123,-0.1167,2.135,-5.582,-1.155
1772976575660.8303,-0.9797,-0.1258,-0.1172,2.301,-5.731,-1.094
1772976575660.8303,-0.9808,-0.1225,-0.115,2.24,-5.635,-1.111
1772976575660.8303,-0.9805,-0.123,-0.1171,2.275,-5.574,-1.269
1772976575660.8303,-0.9786,-0.1224,-0.1166,2.135,-5.442,-1.312
1772976575660.8303,-0.9795,-0.1208,-0.116,2.354,-5.6,-1.4
1772976575660.8303,-0.9812,-0.1237,-0.1161,2.275,-5.933,-1.514
1772976575660.8303,-0.9783,-0.1236,-0.1173,2.529,-5.95,-1.61
1772976575660.8303,-0.9803,-0.1228,-0.1169,1.942,-5.574,-1.636
1772976575676.357,-0.979,-0.1251,-0.117,2.424,-5.609,-1.54
1772976575676.357,-0.9792,-0.1238,-0.1174,2.546,-5.513,-1.627
1772976575676.357,-0.9806,-0.1246,-0.1174,2.529,-5.723,-1.89
1772976575676.357,-0.9819,-0.1216,-0.1174,2.625,-5.548,-1.846
1772976575676.357,-0.9822,-0.1254,-0.1157,2.765,-5.679,-2.013
1772976575676.357,-0.9819,-0.124,-0.1177,2.476,-5.513,-1.951
1772976575676.357,-0.983,-0.1232,-0.1125,2.581,-5.478,-1.951
1772976575676.357,-0.9821,-0.1239,-0.1111,2.8,-5.128,-2.065
1772976575676.357,-0.9834,-0.1255,-0.1154,2.844,-4.944,-2.03
1772976575676.357,-0.9815,-0.1246,-0.1188,3.194,-5.014,-2.214
1772976575676.357,-0.9815,-0.1256,-0.1169,3.062,-5.005,-2.354
1772976575676.357,-0.9811,-0.1255,-0.1224,2.888,-4.926,-2.118
1772976575676.357,-0.9799,-0.1252,-0.1218,3.15,-4.821,-2.31
1772976575691.9097,-0.9806,-0.1267,-0.1243,3.159,-4.891,-2.284
1772976575691.9097,-0.9812,-0.1242,-0.1216,3.106,-5.075,-2.511
1772976575691.9097,-0.9774,-0.1252,-0.1217,3.211,-5.075,-2.275
1772976575691.9097,-0.9773,-0.1247,-0.1245,3.272,-5.022,-2.389
1772976575691.9097,-0.977,-0.1266,-0.1214,3.194,-5.136,-2.572
1772976575691.9097,-0.978,-0.1266,-0.1218,3.203,-5.18,-2.257
1772976575691.9097,-0.9793,-0.125,-0.1208,3.299,-5.381,-2.362
1772976575691.9097,-0.98,-0.1256,-0.1265,3.019,-5.303,-2.415
1772976575691.9097,-0.9781,-0.128,-0.1233,2.879,-5.128,-2.616
1772976575691.9097,-0.9784,-0.1252,-0.1227,3.106,-5.232,-2.476
1772976575691.9097,-0.9789,-0.1273,-0.1222,3.246,-5.241,-2.529
1772976575691.9097,-0.9797,-0.1277,-0.1224,3.299,-5.224,-2.502
1772976575707.4324,-0.9798,-0.1286,-0.1222,3.465,-5.294,-2.494
1772976575707.4324,-0.9778,-0.1276,-0.1224,3.211,-4.996,-2.31
1772976575707.4324,-0.9788,-0.1261,-0.124,3.264,-5.084,-2.599
1772976575707.4324,-0.9775,-0.1274,-0.1239,3.246,-5.058,-2.257
1772976575707.4324,-0.9748,-0.1279,-0.1227,3.141,-4.874,-2.345
1772976575707.4324,-0.977,-0.1303,-0.1238,3.272,-4.996,-2.459
1772976575707.4324,-0.9743,-0.1277,-0.1239,3.141,-5.145,-2.529
1772976575707.4324,-0.9727,-0.1281,-0.1252,3.027,-5.031,-2.336
1772976575707.4324,-0.9728,-0.1286,-0.1259,3.036,-4.839,-2.17
1772976575707.4324,-0.9739,-0.1286,-0.126,2.94,-4.769,-2.205
1772976575707.4324,-0.9743,-0.1284,-0.1246,2.695,-4.812,-1.995
1772976575707.4324,-0.9751,-0.1271,-0.1286,2.695,-4.777,-1.942
1772976575707.4324,-0.9737,-0.1289,-0.128,2.669,-4.769,-1.969
1772976575723.4556,-0.9738,-0.1308,-0.1275,2.651,-4.987,-1.899
1772976575723.4556,-0.9743,-0.1283,-0.1288,2.721,-5.049,-1.794
1772976575723.4556,-0.9731,-0.1291,-0.1276,2.888,-4.909,-1.785
1772976575723.4556,-0.9726,-0.1279,-0.1258,2.406,-5.014,-1.794
1772976575723.4556,-0.9722,-0.1289,-0.1257,2.494,-5.346,-1.619
1772976575723.4556,-0.9726,-0.1274,-0.1257,2.572,-5.268,-1.452
1772976575723.4556,-0.9751,-0.1266,-0.1233,2.319,-5.39,-1.575
1772976575723.4556,-0.9725,-0.1285,-0.1236,2.257,-5.171,-1.461
1772976575723.4556,-0.9726,-0.1258,-0.1215,2.301,-5.311,-1.295
1772976575723.4556,-0.9745,-0.1283,-0.1215,2.231,-5.058,-1.111
1772976575723.4556,-0.9731,-0.1274,-0.1249,2.31,-5.294,-1.234
1772976575723.4556,-0.9716,-0.1257,-0.125,2.144,-5.399,-1.173
1772976575723.4556,-0.9726,-0.127,-0.1202,2.056,-5.311,-1.199
1772976575739.5757,-0.9723,-0.1265,-0.1217,2.152,-5.565,-1.111
1772976575739.5757,-0.9729,-0.1246,-0.1236,2.1,-5.268,-0.91
1772976575739.5757,-0.9699,-0.1263,-0.1221,2.205,-5.276,-1.059
1772976575739.5757,-0.9717,-0.1257,-0.1227,2.047,-5.189,-1.137
1772976575739.5757,-0.9731,-0.1269,-0.1192,2.039,-5.338,-1.015
1772976575739.5757,-0.9722,-0.1266,-0.1229,1.951,-5.268,-1.225
1772976575739.5757,-0.9723,-0.1249,-0.1201,2.056,-5.084,-1.321
1772976575739.5757,-0.9734,-0.1252,-0.1194,1.969,-4.97,-1.242
1772976575739.5757,-0.9722,-0.1263,-0.1193,1.934,-5.171,-1.067
1772976575739.5757,-0.9733,-0.1229,-0.1203,1.811,-5.18,-1.208
1772976575739.5757,-0.9737,-0.1227,-0.1193,1.855,-5.215,-1.076
1772976575739.5757,-0.972,-0.123,-0.1174,1.881,-4.821,-0.963
1772976575739.5757,-0.9732,-0.1242,-0.1159,1.978,-5.022,-1.024
1772976575755.003,-0.972,-0.1242,-0.1148,2.144,-5.241,-1.103
1772976575755.003,-0.9711,-0.1245,-0.1147,1.942,-5.206,-0.761
1772976575755.003,-0.9698,-0.1224,-0.1171,1.925,-5.145,-0.866
1772976575755.003,-0.9709,-0.1249,-0.117,2.083,-5.058,-1.26
1772976575755.003,-0.9719,-0.1236,-0.1172,1.899,-5.206,-1.33
1772976575755.003,-0.9715,-0.125,-0.1191,2.004,-5.25,-1.225
1772976575755.003,-0.9709,-0.1264,-0.1168,1.986,-5.136,-1.409
1772976575755.003,-0.9675,-0.127,-0.1167,2.1,-5.04,-1.601
1772976575755.003,-0.9704,-0.124,-0.1163,2.03,-5.101,-1.531
1772976575755.003,-0.9714,-0.1251,-0.115,1.978,-5.215,-1.593
1772976575755.003,-0.971,-0.1253,-0.1155,2.126,-5.372,-1.47
1772976575755.003,-0.9687,-0.1256,-0.1152,2.109,-5.469,-1.61
1772976575769.6702,-0.9684,-0.126,-0.1117,2.179,-5.346,-1.706
1772976575769.6702,-0.9702,-0.1265,-0.1135,2.231,-5.259,-1.636
1772976575769.6702,-0.9694,-0.1254,-0.1148,2.31,-5.372,-1.864
1772976575769.6702,-0.9721,-0.1261,-0.1108,2.223,-5.145,-2.074
1772976575769.6702,-0.9692,-0.1265,-0.1135,2.083,-5.058,-2.039
1772976575769.6702,-0.9691,-0.1277,-0.1158,2.135,-5.294,-1.934
1772976575769.6702,-0.9715,-0.1283,-0.1139,2.188,-5.119,-1.802
1772976575769.6702,-0.9697,-0.1289,-0.113,2.214,-5.372,-2.292
1772976575769.6702,-0.9731,-0.131,-0.1154,2.581,-5.11,-2.45
1772976575769.6702,-0.972,-0.1304,-0.1142,2.511,-4.909,-2.345
1772976575769.6702,-0.9713,-0.1336,-0.1143,2.669,-4.874,-2.31
1772976575769.6702,-0.9699,-0.1322,-0.1191,2.52,-4.83,-2.126
1772976575785.714,-0.9711,-0.1324,-0.1154,2.441,-4.848,-2.039
1772976575785.714,-0.9716,-0.1323,-0.1169,2.494,-4.961,-1.925
1772976575785.714,-0.9707,-0.1333,-0.118,2.572,-4.979,-1.978
1772976575785.714,-0.9709,-0.1315,-0.1193,2.336,-4.952,-2.039
1772976575785.714,-0.9708,-0.1306,-0.1176,2.328,-4.883,-1.837
1772976575785.714,-0.97,-0.1305,-0.1169,2.66,-5.049,-2.047
1772976575785.714,-0.9719,-0.1316,-0.1165,2.476,-5.224,-2.083
1772976575785.714,-0.9717,-0.1326,-0.1175,2.459,-5.145,-2.135
1772976575785.714,-0.9723,-0.132,-0.1179,2.424,-5.206,-1.899
1772976575785.714,-0.9725,-0.1313,-0.1175,2.538,-5.093,-1.829
1772976575785.714,-0.975,-0.1329,-0.1177,2.476,-5.346,-2.021
1772976575785.714,-0.9726,-0.1345,-0.1197,2.555,-5.355,-1.881
1772976575785.714,-0.9743,-0.133,-0.1201,2.704,-5.486,-1.759
1772976575801.7449,-0.9731,-0.1305,-0.121,2.712,-5.285,-1.689
1772976575801.7449,-0.9743,-0.1309,-0.12,2.8,-5.145,-1.522
1772976575801.7449,-0.9777,-0.1295,-0.1218,2.66,-5.451,-1.706
1772976575801.7449,-0.9759,-0.129,-0.1198,2.354,-5.539,-1.663
1772976575801.7449,-0.9753,-0.13,-0.1222,2.45,-5.364,-1.724
1772976575801.7449,-0.9754,-0.1299,-0.1207,2.634,-5.582,-1.479
1772976575801.7449,-0.9792,-0.1298,-0.1215,2.669,-5.582,-1.339
1772976575801.7449,-0.9794,-0.1288,-0.1192,2.345,-5.425,-1.54
1772976575801.7449,-0.9788,-0.1296,-0.1185,2.485,-5.276,-1.593
1772976575801.7449,-0.9777,-0.1285,-0.1179,2.695,-5.39,-1.365
1772976575801.7449,-0.9772,-0.1291,-0.1154,2.476,-5.407,-1.286
1772976575801.7449,-0.9767,-0.1285,-0.1193,2.555,-5.434,-1.339
1772976575801.7449,-0.9768,-0.1282,-0.1176,2.599,-5.521,-1.549
1772976575817.1335,-0.9741,-0.1296,-0.1185,2.546,-5.478,-1.61
1772976575817.1335,-0.9747,-0.1274,-0.1186,2.546,-5.416,-1.444
1772976575817.1335,-0.976,-0.127,-0.1185,2.712,-5.355,-1.461
1772976575817.1335,-0.9756,-0.1271,-0.1189,2.643,-5.442,-1.514
1772976575817.1335,-0.9759,-0.1292,-0.1177,2.625,-5.364,-1.461
1772976575817.1335,-0.9758,-0.1294,-0.1189,2.616,-5.442,-1.68
1772976575817.1335,-0.979,-0.129,-0.1209,2.599,-5.478,-1.409
1772976575817.1335,-0.9778,-0.1294,-0.1215,2.52,-5.294,-1.514
1772976575817.1335,-0.9801,-0.1285,-0.1202,2.467,-5.136,-1.383
1772976575817.1335,-0.978,-0.1287,-0.1207,2.424,-5.268,-1.426
1772976575817.1335,-0.9794,-0.1294,-0.1193,2.467,-5.39,-1.452
1772976575817.1335,-0.9789,-0.1301,-0.1194,2.555,-5.495,-1.339
1772976575817.1335,-0.9795,-0.1285,-0.1182,2.485,-5.495,-1.312
1772976575833.17,-0.9809,-0.1289,-0.1211,2.748,-5.407,-1.426
1772976575833.17,-0.9809,-0.1301,-0.1199,2.739,-5.355,-1.601
1772976575833.17,-0.9805,-0.127,-0.1227,2.345,-5.294,-1.452
1772976575833.17,-0.9813,-0.1287,-0.1187,2.433,-5.329,-1.645
1772976575833.17,-0.9801,-0.1307,-0.1221,2.529,-5.224,-1.645
1772976575833.17,-0.9795,-0.1279,-0.1215,2.441,-5.303,-1.741
1772976575833.17,-0.982,-0.1296,-0.1191,2.529,-5.311,-1.759
1772976575833.17,-0.9812,-0.1292,-0.1191,2.695,-5.364,-1.715
1772976575833.17,-0.9803,-0.128,-0.1199,2.433,-5.32,-1.829
1772976575833.17,-0.9825,-0.1317,-0.1183,2.564,-5.364,-1.802
1772976575833.17,-0.9825,-0.129,-0.1211,2.476,-5.364,-1.724
1772976575833.17,-0.9841,-0.1318,-0.1174,2.529,-5.486,-1.724
1772976575833.17,-0.9839,-0.1293,-0.1202,2.59,-5.145,-1.724
1772976575848.305,-0.9837,-0.1304,-0.1207,2.625,-5.478,-1.698
1772976575848.305,-0.9835,-0.1294,-0.1197,2.678,-5.206,-1.671
1772976575848.305,-0.9822,-0.1307,-0.1219,2.809,-5.197,-1.768
1772976575848.305,-0.9833,-0.1312,-0.1178,2.748,-5.268,-1.654
1772976575848.305,-0.9836,-0.1309,-0.1202,2.599,-5.154,-1.61
1772976575848.305,-0.9829,-0.1309,-0.1222,2.555,-5.04,-1.768
1772976575848.305,-0.9808,-0.1307,-0.1215,2.669,-5.539,-1.89
1772976575848.305,-0.9823,-0.1321,-0.12,2.686,-5.688,-1.82
1772976575848.305,-0.9797,-0.1302,-0.1209,2.817,-5.346,-1.68
1772976575848.305,-0.9789,-0.1306,-0.1208,2.73,-5.556,-1.68
1772976575848.305,-0.9795,-0.1304,-0.1198,2.678,-5.355,-1.461
1772976575848.305,-0.9796,-0.1283,-0.12,2.835,-5.548,-1.54
1772976575863.556,-0.9808,-0.1297,-0.1204,2.686,-5.565,-1.417
1772976575863.556,-0.9775,-0.1286,-0.1202,2.73,-5.617,-1.47
1772976575863.556,-0.978,-0.1285,-0.1172,2.538,-5.285,-1.356
1772976575863.556,-0.9748,-0.1305,-0.116,2.625,-5.495,-1.347
1772976575863.556,-0.9764,-0.1299,-0.1164,2.861,-5.495,-1.671
1772976575863.556,-0.9737,-0.1275,-0.1164,2.87,-5.355,-1.54
1772976575863.556,-0.9756,-0.128,-0.115,2.66,-5.495,-1.383
1772976575863.556,-0.9761,-0.1288,-0.1151,2.704,-5.688,-1.505
1772976575863.556,-0.9751,-0.1275,-0.1146,2.678,-5.303,-1.347
1772976575863.556,-0.9739,-0.1263,-0.1146,2.756,-5.425,-1.278
1772976575863.556,-0.9751,-0.1269,-0.1164,2.817,-5.46,-1.417
1772976575863.556,-0.977,-0.1272,-0.1183,3.01,-5.434,-1.654
1772976575863.556,-0.9741,-0.1272,-0.1143,3.15,-5.469,-1.601
1772976575878.7888,-0.9745,-0.1285,-0.1158,2.949,-5.442,-1.619
1772976575878.7888,-0.9737,-0.1282,-0.1135,2.765,-5.189,-1.505
1772976575878.7888,-0.9737,-0.1271,-0.116,2.853,-5.25,-1.732
1772976575878.7888,-0.9771,-0.1269,-0.1167,2.879,-5.224,-1.671
1772976575878.7888,-0.9742,-0.1258,-0.1171,2.94,-5.268,-1.663
1772976575878.7888,-0.9728,-0.1283,-0.1163,2.8,-5.442,-1.741
1772976575878.7888,-0.9772,-0.127,-0.1185,2.975,-5.346,-1.584
1772976575878.7888,-0.9737,-0.1284,-0.1193,3.054,-5.32,-1.61
1772976575878.7888,-0.9738,-0.1259,-0.1211,2.958,-4.935,-1.732
1772976575878.7888,-0.976,-0.1249,-0.1172,2.958,-5.329,-1.549
1772976575878.7888,-0.9756,-0.1258,-0.1173,2.931,-5.591,-1.549
1772976575878.7888,-0.9761,-0.1276,-0.1196,2.922,-5.469,-1.68
1772976575894.2654,-0.9764,-0.1278,-0.1167,3.132,-5.32,-1.75
1772976575894.2654,-0.9746,-0.1276,-0.1169,3.132,-5.329,-2.109
1772976575894.2654,-0.9728,-0.1265,-0.1199,3.001,-5.355,-1.907
1772976575894.2654,-0.9748,-0.1282,-0.1181,3.062,-5.171,-1.663
1772976575894.2654,-0.9756,-0.1269,-0.1217,3.045,-5.364,-1.68
1772976575894.2654,-0.9755,-0.1277,-0.1216,2.958,-5.39,-1.531
1772976575894.2654,-0.9751,-0.1265,-0.12,3.01,-5.539,-1.785
1772976575894.2654,-0.9733,-0.1263,-0.1199,3.106,-5.25,-1.759
1772976575894.2654,-0.9737,-0.1271,-0.1222,3.01,-5.425,-1.61
1772976575894.2654,-0.9732,-0.1268,-0.1179,2.966,-5.162,-1.496
1772976575894.2654,-0.974,-0.1277,-0.1205,3.062,-5.25,-1.68
1772976575894.2654,-0.9723,-0.1268,-0.1194,3.22,-5.372,-1.89
1772976575909.9446,-0.9732,-0.1261,-0.1212,2.949,-5.232,-1.61
1772976575909.9446,-0.9726,-0.124,-0.1211,2.975,-5.128,-1.837
1772976575909.9446,-0.9738,-0.1267,-0.1205,3.036,-5.565,-1.855
1772976575909.9446,-0.972,-0.1272,-0.1198,3.29,-5.451,-1.549
1772976575909.9446,-0.9753,-0.1293,-0.1211,3.229,-5.355,-1.593
1772976575909.9446,-0.9755,-0.1277,-0.1221,3.141,-5.521,-1.522
1772976575909.9446,-0.9748,-0.1275,-0.1204,2.958,-5.329,-1.558
1772976575909.9446,-0.9762,-0.1289,-0.1227,2.879,-5.311,-1.531
1772976575909.9446,-0.9727,-0.1282,-0.121,2.835,-5.372,-1.61
1772976575909.9446,-0.9742,-0.1288,-0.1198,2.87,-5.53,-1.61
1772976575909.9446,-0.9753,-0.1286,-0.1207,3.001,-5.504,-1.82
1772976575909.9446,-0.9755,-0.1282,-0.1219,3.203,-5.504,-1.584
1772976575909.9446,-0.9743,-0.1282,-0.1186,3.176,-5.241,-1.627
1772976575924.8926,-0.9741,-0.128,-0.1225,2.861,-5.311,-1.575
1772976575924.8926,-0.9743,-0.1272,-0.119,2.958,-5.556,-1.54
1772976575924.8926,-0.9773,-0.1289,-0.1218,2.844,-5.478,-1.496
1772976575924.8926,-0.9747,-0.1272,-0.1222,2.888,-5.67,-1.461
1772976575924.8926,-0.9773,-0.1269,-0.1221,2.835,-5.635,-1.479
1772976575924.8926,-0.9756,-0.1276,-0.121,2.931,-5.556,-1.531
1772976575924.8926,-0.9761,-0.1246,-0.1222,2.791,-5.696,-1.339
1772976575924.8926,-0.9766,-0.125,-0.1208,2.678,-5.6,-1.321
1772976575924.8926,-0.9739,-0.1262,-0.1208,2.564,-5.486,-1.33
1772976575924.8926,-0.9727,-0.1233,-0.1211,2.494,-5.416,-1.584
1772976575924.8926,-0.9755,-0.1232,-0.1208,2.45,-5.617,-1.636
1772976575924.8926,-0.9751,-0.1227,-0.1202,2.607,-5.478,-1.479
1772976575940.8662,-0.9773,-0.1239,-0.1215,2.599,-5.416,-1.444
1772976575940.8662,-0.9776,-0.1245,-0.121,2.607,-5.617,-1.356
1772976575940.8662,-0.9787,-0.1229,-0.1202,2.529,-5.521,-1.452
1772976575940.8662,-0.9795,-0.1245,-0.1175,2.467,-5.871,-1.619
1772976575940.8662,-0.978,-0.1229,-0.119,2.59,-5.793,-1.802
1772976575940.8662,-0.9776,-0.1222,-0.1184,2.362,-5.591,-1.663
1772976575940.8662,-0.9779,-0.1233,-0.1197,2.336,-5.574,-1.575
1772976575940.8662,-0.9775,-0.1235,-0.1207,2.205,-5.294,-1.785
1772976575940.8662,-0.9788,-0.1243,-0.1196,2.231,-5.486,-1.864
1772976575940.8662,-0.9729,-0.1243,-0.1236,2.345,-5.434,-1.768
1772976575940.8662,-0.9751,-0.1274,-0.1198,2.223,-5.53,-1.978
1772976575940.8662,-0.9743,-0.125,-0.122,2.406,-5.486,-2.223
1772976575940.8662,-0.9723,-0.1235,-0.121,2.625,-5.74,-2.047
1772976575956.1729,-0.9748,-0.126,-0.1213,2.502,-5.635,-1.925
1772976575956.1729,-0.9751,-0.1265,-0.1199,2.494,-5.801,-2.152
1772976575956.1729,-0.9759,-0.1274,-0.1246,2.406,-5.688,-2.126
1772976575956.1729,-0.9759,-0.1269,-0.1213,2.73,-5.565,-1.96
1772976575956.1729,-0.9778,-0.1286,-0.1221,2.643,-5.513,-2.196
1772976575956.1729,-0.9756,-0.1277,-0.12,2.599,-5.521,-2.397
1772976575956.1729,-0.9734,-0.1293,-0.1222,2.643,-5.486,-2.336
1772976575956.1729,-0.9745,-0.1316,-0.1192,2.73,-5.574,-2.336
1772976575956.1729,-0.974,-0.1305,-0.1218,2.748,-5.696,-2.345
1772976575956.1729,-0.9769,-0.1308,-0.1188,2.888,-5.652,-2.397
1772976575956.1729,-0.9765,-0.1296,-0.1186,2.712,-5.67,-2.441
1772976575956.1729,-0.9793,-0.1324,-0.12,2.922,-5.696,-2.643
1772976575971.8638,-0.9789,-0.1305,-0.1216,2.931,-5.582,-2.397
1772976575971.8638,-0.9768,-0.1327,-0.1214,2.835,-5.644,-2.45
1772976575971.8638,-0.9783,-0.1334,-0.12,2.975,-5.714,-2.45
1772976575971.8638,-0.9782,-0.1336,-0.1205,2.966,-5.731,-2.397
1772976575971.8638,-0.9759,-0.1335,-0.1223,3.176,-5.775,-2.476
1772976575971.8638,-0.9782,-0.1366,-0.1216,2.993,-5.924,-2.31
1772976575971.8638,-0.9755,-0.1341,-0.1232,3.264,-6.064,-2.371
1772976575971.8638,-0.9789,-0.1321,-0.1227,3.167,-5.968,-2.319
1772976575971.8638,-0.9778,-0.1332,-0.1217,3.071,-5.801,-2.31
1772976575971.8638,-0.9801,-0.1332,-0.1193,3.132,-5.731,-2.196
1772976575971.8638,-0.9766,-0.1328,-0.1208,3.027,-5.635,-2.205
1772976575971.8638,-0.9764,-0.1318,-0.1212,2.817,-5.696,-1.995
1772976575971.8638,-0.9799,-0.1339,-0.1202,2.949,-5.617,-1.986
1772976575987.1497,-0.9788,-0.1328,-0.1214,3.019,-5.364,-2.196
1772976575987.1497,-0.9793,-0.1354,-0.1182,3.045,-5.723,-2.152
1772976575987.1497,-0.9773,-0.136,-0.1177,3.176,-5.705,-2.03
1772976575987.1497,-0.9778,-0.1361,-0.1208,3.229,-5.688,-2.013
1772976575987.1497,-0.9799,-0.1365,-0.118,3.115,-5.495,-1.785
1772976575987.1497,-0.9765,-0.1364,-0.119,3.185,-5.74,-1.881
1772976575987.1497,-0.9769,-0.136,-0.1177,3.439,-5.495,-1.855
1772976575987.1497,-0.9784,-0.1355,-0.1166,3.36,-5.311,-1.698
1772976575987.1497,-0.9805,-0.1354,-0.1205,3.325,-5.513,-1.671
1772976575987.1497,-0.9798,-0.133,-0.1213,3.579,-5.504,-1.627
1772976575987.1497,-0.9816,-0.1369,-0.1216,3.623,-5.294,-1.619
1772976575987.1497,-0.9781,-0.1349,-0.1215,3.482,-5.25,-1.347
1772976575987.1497,-0.9794,-0.1353,-0.1216,3.395,-5.329,-1.278
1772976576003.0378,-0.9764,-0.1343,-0.1212,3.456,-5.565,-1.444
1772976576003.0378,-0.9792,-0.1354,-0.1235,3.421,-5.232,-1.61
1772976576003.0378,-0.9789,-0.1358,-0.1237,3.246,-5.119,-1.452
1772976576003.0378,-0.9809,-0.1329,-0.1229,3.334,-5.364,-1.347
1772976576003.0378,-0.9787,-0.135,-0.1215,3.439,-5.364,-1.452
1772976576003.0378,-0.9786,-0.1322,-0.1202,3.544,-5.407,-1.234
1772976576003.0378,-0.9783,-0.1359,-0.1191,3.342,-5.171,-1.015
1772976576003.0378,-0.9784,-0.1337,-0.1206,3.308,-5.495,-0.945
1772976576003.0378,-0.9783,-0.1332,-0.1211,3.237,-5.285,-1.26
1772976576003.0378,-0.9762,-0.1327,-0.1235,3.299,-5.346,-1.111
1772976576003.0378,-0.9767,-0.1293,-0.1234,3.447,-5.582,-1.321
1772976576003.0378,-0.9794,-0.1307,-0.1222,3.377,-5.74,-1.032
1772976576019.0938,-0.9793,-0.1285,-0.1211,3.491,-5.6,-0.91
1772976576019.0938,-0.9784,-0.1306,-0.1218,3.553,-5.617,-1.129
1772976576019.0938,-0.9787,-0.1305,-0.1193,3.675,-5.521,-1.111
1772976576019.0938,-0.9775,-0.131,-0.1196,3.447,-5.556,-0.98
1772976576019.0938,-0.9772,-0.1288,-0.1216,3.474,-5.688,-0.989
1772976576019.0938,-0.9784,-0.1282,-0.1208,3.5,-5.714,-0.954
1772976576019.0938,-0.9793,-0.1277,-0.1185,3.553,-5.46,-0.963
1772976576019.0938,-0.9769,-0.1268,-0.1178,3.509,-5.644,-0.98
1772976576019.0938,-0.977,-0.1273,-0.1199,3.299,-5.749,-1.024
1772976576019.0938,-0.9767,-0.1282,-0.118,3.526,-5.67,-1.137
1772976576019.0938,-0.9786,-0.1291,-0.1201,3.386,-5.399,-1.032
1772976576019.0938,-0.9788,-0.1248,-0.1208,3.211,-5.399,-1.024
1772976576019.0938,-0.9756,-0.126,-0.1207,3.456,-5.548,-1.242
1772976576034.2046,-0.9762,-0.1249,-0.1198,3.474,-5.311,-1.295
1772976576034.2046,-0.9786,-0.1247,-0.1181,3.5,-5.46,-1.47
1772976576034.2046,-0.9783,-0.1269,-0.12,3.474,-5.259,-1.225
1772976576034.2046,-0.9782,-0.1243,-0.1173,3.211,-5.119,-1.339
1772976576034.2046,-0.9756,-0.1244,-0.1163,3.36,-5.259,-1.33
1772976576034.2046,-0.9786,-0.1233,-0.119,3.159,-5.215,-1.234
1772976576034.2046,-0.976,-0.1238,-0.1205,3.194,-5.197,-1.181
1772976576034.2046,-0.9777,-0.1223,-0.1207,3.316,-5.241,-1.356
1772976576034.2046,-0.9752,-0.1242,-0.1206,3.176,-5.53,-1.33
1772976576034.2046,-0.975,-0.1236,-0.1208,3.124,-5.329,-1.225
1772976576034.2046,-0.9766,-0.1227,-0.1197,3.132,-5.372,-1.391
1772976576034.2046,-0.977,-0.1221,-0.1205,3.132,-5.346,-1.409
1772976576034.2046,-0.9761,-0.1229,-0.1214,2.993,-4.961,-1.26
1772976576050.048,-0.9756,-0.1216,-0.1204,2.94,-5.101,-1.356
1772976576050.048,-0.978,-0.1234,-0.1223,3.115,-5.372,-1.4
1772976576050.048,-0.9758,-0.1212,-0.1211,2.888,-5.162,-1.216
1772976576050.048,-0.9775,-0.1235,-0.1213,2.853,-5.206,-1.19
1772976576050.048,-0.9756,-0.1229,-0.1208,2.686,-5.346,-1.452
1772976576050.048,-0.9747,-0.1218,-0.1204,2.844,-5.224,-1.321
1772976576050.048,-0.9748,-0.1202,-0.1227,2.774,-5.434,-1.417
1772976576050.048,-0.9753,-0.1207,-0.1233,2.791,-5.162,-1.522
1772976576050.048,-0.9762,-0.1215,-0.1225,2.896,-5.407,-1.54
1772976576050.048,-0.9742,-0.121,-0.1228,2.599,-5.434,-1.409
1772976576050.048,-0.9757,-0.1222,-0.1244,2.739,-5.206,-1.452
1772976576050.048,-0.9729,-0.1224,-0.1193,2.564,-5.119,-1.601
1772976576066.0444,-0.9751,-0.123,-0.1218,2.59,-5.189,-1.575
1772976576066.0444,-0.9733,-0.1238,-0.1215,2.546,-5.215,-1.741
1772976576066.0444,-0.9716,-0.1235,-0.1206,2.712,-5.478,-1.724
1772976576066.0444,-0.9704,-0.1202,-0.1211,2.739,-5.714,-1.426
1772976576066.0444,-0.9705,-0.1218,-0.1217,2.52,-5.81,-1.698
1772976576066.0444,-0.9691,-0.1218,-0.118,2.809,-5.591,-1.802
1772976576066.0444,-0.9692,-0.1242,-0.1196,2.73,-5.915,-1.645
1772976576066.0444,-0.9701,-0.1238,-0.1208,2.783,-5.652,-1.479
1772976576066.0444,-0.967,-0.1248,-0.1227,2.695,-5.696,-1.584
1772976576066.0444,-0.9687,-0.1268,-0.119,2.66,-5.775,-1.82
1772976576066.0444,-0.9686,-0.1261,-0.1182,2.678,-5.968,-1.916
1772976576066.0444,-0.9673,-0.1254,-0.1169,2.616,-5.862,-1.759
1772976576066.0444,-0.9678,-0.1267,-0.1169,2.572,-6.081,-1.785
1772976576081.5747,-0.9672,-0.1246,-0.1151,2.625,-5.889,-1.68
1772976576081.5747,-0.9668,-0.126,-0.1159,2.485,-5.827,-1.846
1772976576081.5747,-0.9686,-0.1244,-0.1163,2.433,-6.029,-1.82
1772976576081.5747,-0.9684,-0.1247,-0.1166,2.389,-5.941,-1.846
1772976576081.5747,-0.9689,-0.1252,-0.1128,2.529,-5.862,-1.916
1772976576081.5747,-0.9683,-0.1255,-0.1163,2.371,-5.871,-1.785
1772976576081.5747,-0.9678,-0.1259,-0.1156,2.179,-5.976,-1.829
1772976576081.5747,-0.9665,-0.1257,-0.1156,2.24,-5.758,-1.75
1772976576081.5747,-0.9661,-0.1269,-0.115,2.179,-5.749,-1.549
1772976576081.5747,-0.9681,-0.127,-0.1136,2.231,-5.845,-1.549
1772976576081.5747,-0.9702,-0.1282,-0.1134,2.502,-5.749,-1.829
1772976576081.5747,-0.9717,-0.1269,-0.1154,2.362,-5.635,-1.907
1772976576081.5747,-0.9708,-0.1309,-0.1155,2.284,-5.758,-1.715
1772976576098.4446,-0.9715,-0.13,-0.1164,2.362,-5.442,-1.522
1772976576098.4446,-0.9737,-0.1318,-0.115,2.336,-5.32,-1.54
1772976576098.4446,-0.9725,-0.129,-0.1141,2.502,-5.749,-1.496
1772976576098.4446,-0.9715,-0.1286,-0.1156,2.336,-5.661,-1.671
1772976576098.4446,-0.9747,-0.1318,-0.1192,2.52,-5.609,-1.636
1772976576098.4446,-0.9746,-0.1312,-0.1185,2.336,-5.556,-1.575
1772976576098.4446,-0.9761,-0.1296,-0.1185,2.371,-5.827,-1.75
1772976576098.4446,-0.9761,-0.133,-0.1208,2.301,-5.626,-1.304
1772976576098.4446,-0.9774,-0.1308,-0.1182,2.572,-5.469,-1.461
1772976576098.4446,-0.9747,-0.1294,-0.1149,2.555,-5.591,-1.663
1772976576098.4446,-0.9773,-0.1294,-0.1157,2.572,-5.784,-1.706
1772976576098.4446,-0.9786,-0.1304,-0.1158,2.581,-5.74,-1.627
1772976576098.4446,-0.9799,-0.1349,-0.1164,2.783,-5.504,-1.689
1772976576098.4446,-0.9798,-0.1299,-0.1195,2.888,-5.451,-1.619
1772976576113.475,-0.9766,-0.1285,-0.1169,2.433,-5.565,-1.663
1772976576113.475,-0.9792,-0.1299,-0.1167,2.529,-5.661,-1.654
1772976576113.475,-0.9792,-0.1295,-0.1182,2.433,-5.513,-1.566
1772976576113.475,-0.9808,-0.1304,-0.1201,2.599,-5.801,-1.794
1772976576113.475,-0.9792,-0.1301,-0.1213,2.511,-5.574,-1.768
1772976576113.475,-0.9798,-0.1295,-0.1209,2.581,-5.819,-1.855
1772976576113.475,-0.9784,-0.1264,-0.1198,2.59,-5.635,-1.759
1772976576113.475,-0.9806,-0.1288,-0.1176,2.572,-5.259,-1.715
1772976576113.475,-0.9799,-0.1265,-0.1182,2.441,-5.25,-1.776
1772976576113.475,-0.9825,-0.125,-0.1195,2.581,-5.652,-1.855
1772976576113.475,-0.9794,-0.126,-0.1157,2.511,-5.705,-1.942
1772976576113.475,-0.9818,-0.1259,-0.1165,2.345,-5.32,-1.645
1772976576129.5134,-0.9816,-0.1276,-0.1175,2.345,-5.539,-1.715
1772976576129.5134,-0.983,-0.1282,-0.1198,2.441,-5.539,-1.706
1772976576129.5134,-0.9847,-0.1286,-0.1198,2.249,-5.189,-1.846
1772976576129.5134,-0.985,-0.1282,-0.1169,2.441,-5.329,-1.689
1772976576129.5134,-0.9828,-0.1303,-0.1219,2.345,-5.206,-1.89
1772976576129.5134,-0.9841,-0.1281,-0.1197,2.406,-5.171,-1.724
1772976576129.5134,-0.983,-0.1297,-0.1227,2.38,-5.189,-1.654
1772976576129.5134,-0.9834,-0.1309,-0.1205,2.214,-5.066,-1.916
1772976576129.5134,-0.9836,-0.1315,-0.119,2.336,-5.241,-1.811
1772976576129.5134,-0.9789,-0.1314,-0.1198,2.502,-5.381,-1.785
1772976576129.5134,-0.9804,-0.1301,-0.1201,2.502,-5.372,-1.671
1772976576129.5134,-0.9801,-0.1299,-0.1185,2.607,-5.338,-1.741
1772976576129.5134,-0.9787,-0.1294,-0.1197,2.476,-5.434,-1.452
1772976576145.0464,-0.9781,-0.1294,-0.1199,2.59,-5.504,-1.496
1772976576145.0464,-0.9798,-0.1331,-0.1199,2.441,-5.504,-1.741
