Time_ms,ax,ay,az,gx,gy,gz
1772935211920.1716,-0.0375,0.0343,-0.975,3.001,-5.889,-1.68
1772935211920.1716,-0.0397,0.0351,-0.976,3.15,-5.906,-1.435
1772935211920.1716,-0.0395,0.0323,-0.9766,3.299,-5.985,-1.627
1772935211920.1716,-0.0383,0.0345,-0.9747,3.491,-6.16,-1.61
1772935211920.1716,-0.0376,0.0321,-0.9734,3.334,-5.845,-1.531
1772935211920.1716,-0.0393,0.0325,-0.9745,3.553,-5.871,-1.522
1772935211920.1716,-0.0387,0.0314,-0.974,3.518,-5.994,-1.417
1772935211920.1716,-0.0373,0.0319,-0.9732,3.605,-5.941,-1.347
1772935211920.1716,-0.0356,0.0281,-0.9733,3.658,-6.107,-1.514
1772935211920.1716,-0.0392,0.0293,-0.9739,3.789,-6.195,-1.549
1772935211920.1716,-0.0401,0.0289,-0.9728,3.85,-6.309,-1.339
1772935211920.1716,-0.0365,0.029,-0.9734,3.876,-6.282,-1.522
1772935211920.1716,-0.0383,0.0282,-0.9734,3.728,-6.204,-1.558
1772935211935.9065,-0.0376,0.0262,-0.9704,3.701,-6.107,-1.234
1772935211935.9065,-0.0396,0.0249,-0.9729,3.894,-6.143,-1.312
1772935211935.9065,-0.0399,0.024,-0.9739,3.623,-5.976,-1.444
1772935211935.9065,-0.0386,0.0258,-0.971,3.684,-5.906,-1.365
1772935211935.9065,-0.0371,0.0234,-0.9722,3.981,-6.055,-1.356
1772935211935.9065,-0.0405,0.0242,-0.9677,3.692,-5.609,-1.015
1772935211935.9065,-0.0404,0.022,-0.969,3.701,-5.425,-1.225
1772935211935.9065,-0.0384,0.0212,-0.9674,3.579,-5.565,-1.242
1772935211935.9065,-0.0382,0.0194,-0.9688,3.518,-5.609,-1.129
1772935211935.9065,-0.0395,0.0228,-0.9676,3.395,-5.311,-1.129
1772935211935.9065,-0.0391,0.0211,-0.9684,3.334,-5.513,-1.024
1772935211935.9065,-0.0397,0.0212,-0.9695,3.351,-5.486,-1.006
1772935211951.683,-0.0382,0.0198,-0.9685,2.966,-5.119,-0.963
1772935211951.683,-0.0387,0.02,-0.9685,2.896,-4.865,-0.866
1772935211951.683,-0.0364,0.0193,-0.9665,2.931,-4.751,-0.971
1772935211951.683,-0.0375,0.0193,-0.969,2.599,-4.848,-1.05
1772935211951.683,-0.0368,0.017,-0.971,2.669,-4.83,-0.735
1772935211951.683,-0.0356,0.0209,-0.9706,2.643,-4.769,-0.866
1772935211951.683,-0.0371,0.0184,-0.9699,2.485,-4.576,-0.998
1772935211951.683,-0.0387,0.0198,-0.9717,2.266,-4.463,-0.823
1772935211951.683,-0.0358,0.0205,-0.9687,2.24,-4.366,-0.796
1772935211951.683,-0.0382,0.0194,-0.9725,1.96,-4.051,-0.779
1772935211951.683,-0.0381,0.0212,-0.9697,1.846,-4.139,-0.849
1772935211951.683,-0.0367,0.0196,-0.9733,1.671,-4.296,-0.647
1772935211951.683,-0.0382,0.0206,-0.9768,1.575,-4.034,-0.796
1772935211966.8103,-0.0357,0.0212,-0.9759,1.531,-3.868,-0.525
1772935211966.8103,-0.0375,0.0223,-0.975,1.383,-4.13,-0.858
1772935211966.8103,-0.0369,0.0207,-0.9776,1.304,-3.876,-0.91
1772935211966.8103,-0.0347,0.0209,-0.9777,1.006,-4.06,-0.919
1772935211966.8103,-0.0346,0.0223,-0.9794,1.015,-3.894,-0.735
1772935211966.8103,-0.0381,0.0235,-0.9803,1.05,-3.745,-0.7
1772935211966.8103,-0.0344,0.0245,-0.9812,1.05,-3.666,-0.796
1772935211966.8103,-0.0362,0.0243,-0.9844,0.56,-3.658,-0.709
1772935211966.8103,-0.035,0.0237,-0.9819,0.735,-3.797,-0.849
1772935211966.8103,-0.0366,0.0249,-0.9866,0.814,-3.719,-0.805
1772935211966.8103,-0.0342,0.0276,-0.9897,0.665,-4.165,-0.84
1772935211966.8103,-0.0355,0.0302,-0.9881,0.595,-4.06,-0.787
1772935211982.4868,-0.037,0.0325,-0.9898,0.525,-4.147,-0.604
1772935211982.4868,-0.033,0.0322,-0.995,0.796,-4.384,-0.752
1772935211982.4868,-0.0335,0.0328,-0.9944,0.823,-4.331,-0.945
1772935211982.4868,-0.0345,0.0334,-0.9961,0.796,-4.76,-0.718
1772935211982.4868,-0.0303,0.0331,-0.9976,0.674,-4.804,-1.015
1772935211982.4868,-0.0331,0.0361,-1.0011,0.787,-4.742,-0.936
1772935211982.4868,-0.0332,0.037,-1.0032,0.849,-5.154,-1.067
1772935211982.4868,-0.0331,0.0396,-1.005,1.05,-5.53,-1.181
1772935211982.4868,-0.0334,0.0383,-1.0026,0.927,-5.609,-1.05
1772935211982.4868,-0.0332,0.0411,-1.006,1.26,-5.924,-1.435
1772935211982.4868,-0.0321,0.0391,-1.0036,1.269,-5.985,-1.312
1772935211982.4868,-0.0303,0.0445,-1.0044,1.356,-6.379,-1.365
1772935211982.4868,-0.0328,0.0451,-1.0036,1.339,-6.79,-1.558
1772935211998.9275,-0.0321,0.0431,-1.0047,1.417,-7.263,-1.698
1772935211998.9275,-0.0316,0.0442,-1.0038,1.522,-7.394,-1.724
1772935211998.9275,-0.0306,0.0453,-1.0015,1.514,-7.674,-1.671
1772935211998.9275,-0.0294,0.048,-1.0025,1.619,-7.647,-1.96
1772935211998.9275,-0.0292,0.0494,-0.9987,1.829,-7.901,-2.039
1772935211998.9275,-0.0282,0.0481,-0.9999,1.811,-8.339,-1.995
1772935211998.9275,-0.0306,0.0483,-0.9977,1.671,-8.242,-2.292
1772935211998.9275,-0.0301,0.0483,-0.995,1.776,-8.418,-2.319
1772935211998.9275,-0.0338,0.0494,-0.9902,1.881,-8.549,-2.31
1772935211998.9275,-0.0323,0.047,-0.9921,1.855,-8.873,-2.354
1772935211998.9275,-0.0331,0.045,-0.991,1.645,-8.951,-2.529
1772935211998.9275,-0.0343,0.0403,-0.9889,1.706,-9.021,-2.555
1772935211998.9275,-0.0357,0.0393,-0.9877,1.654,-9.082,-2.433
1772935212013.951,-0.0367,0.0386,-0.9843,1.654,-8.969,-2.459
1772935212013.951,-0.0362,0.0366,-0.9817,1.741,-8.916,-2.581
1772935212013.951,-0.038,0.0349,-0.9786,1.558,-8.838,-2.511
1772935212013.951,-0.0379,0.0321,-0.977,1.365,-8.846,-2.406
1772935212013.951,-0.04,0.0294,-0.9756,1.278,-8.592,-2.371
1772935212013.951,-0.0399,0.0268,-0.9719,1.452,-8.409,-2.38
1772935212013.951,-0.043,0.0244,-0.9717,1.522,-8.076,-2.188
1772935212013.951,-0.0444,0.0221,-0.9704,1.663,-8.321,-1.907
1772935212013.951,-0.0431,0.0209,-0.9712,1.488,-7.595,-1.741
1772935212013.951,-0.0455,0.0203,-0.9689,1.601,-7.114,-1.47
1772935212013.951,-0.0443,0.0185,-0.9708,1.855,-6.939,-1.575
1772935212013.951,-0.044,0.0185,-0.9729,2.223,-6.527,-1.295
1772935212029.1938,-0.0419,0.0179,-0.9739,2.301,-6.317,-0.954
1772935212029.1938,-0.0418,0.0187,-0.9741,2.362,-5.924,-1.032
1772935212029.1938,-0.037,0.0182,-0.9777,2.721,-6.064,-1.067
1772935212029.1938,-0.0354,0.0193,-0.9808,3.001,-5.338,-0.823
1772935212029.1938,-0.0348,0.0193,-0.983,3.482,-5.53,-0.613
1772935212029.1938,-0.0313,0.0184,-0.986,3.806,-5.171,-0.525
1772935212029.1938,-0.0325,0.0214,-0.9936,4.112,-5.206,-0.333
1772935212029.1938,-0.0273,0.0228,-0.9949,4.366,-5.128,-0.394
1772935212029.1938,-0.0264,0.0232,-1.0003,4.603,-5.232,-0.341
1772935212029.1938,-0.0256,0.0232,-1.0029,5.171,-5.6,-0.219
1772935212029.1938,-0.0251,0.0244,-1.0053,5.617,-5.469,-0.236
1772935212029.1938,-0.0244,0.0268,-1.007,5.731,-5.758,-0.367
1772935212029.1938,-0.0237,0.0244,-1.0088,5.801,-6.02,-0.315
1772935212045.0723,-0.0226,0.0256,-1.0067,6.081,-6.309,-0.219
1772935212045.0723,-0.02,0.0242,-1.0088,6.37,-6.799,-0.429
1772935212045.0723,-0.0204,0.026,-1.0103,6.545,-7.14,-0.446
1772935212045.0723,-0.0229,0.0265,-1.0082,6.589,-7.543,-0.446
1772935212045.0723,-0.0248,0.027,-1.0086,6.484,-7.971,-0.674
1772935212045.0723,-0.0246,0.0271,-1.0049,6.466,-8.225,-0.551
1772935212045.0723,-0.027,0.0253,-1.0092,6.274,-8.811,-0.682
1772935212045.0723,-0.0265,0.0289,-1.0089,6.037,-9.056,-0.884
1772935212045.0723,-0.0259,0.0285,-1.0055,5.941,-9.363,-0.98
1772935212045.0723,-0.0257,0.0297,-1.0094,5.355,-9.634,-1.129
1772935212045.0723,-0.0269,0.0292,-1.0076,5.407,-9.914,-1.164
1772935212045.0723,-0.0282,0.0279,-1.0049,5.215,-10.588,-1.339
1772935212045.0723,-0.0286,0.0287,-1.0063,5.215,-10.859,-1.225
1772935212060.3743,-0.0282,0.0312,-1.005,5.093,-11.27,-1.575
1772935212060.3743,-0.031,0.032,-1.0046,4.69,-11.76,-1.75
1772935212060.3743,-0.03,0.0323,-1.0017,4.366,-11.716,-1.645
1772935212060.3743,-0.0307,0.0327,-1.0016,4.305,-12.005,-1.566
1772935212060.3743,-0.0339,0.032,-0.9997,4.375,-12.443,-1.855
1772935212060.3743,-0.0331,0.0298,-0.9988,4.112,-12.758,-1.951
1772935212060.3743,-0.0346,0.032,-0.9981,3.911,-12.941,-2.118
1772935212060.3743,-0.0369,0.0307,-0.9973,3.561,-12.889,-1.837
1772935212060.3743,-0.0384,0.0289,-0.9966,3.509,-13.23,-1.96
1772935212060.3743,-0.0371,0.0293,-0.9944,3.369,-13.134,-1.759
1772935212060.3743,-0.0355,0.0296,-0.9948,3.132,-13.274,-1.864
1772935212060.3743,-0.0382,0.0289,-0.9958,3.167,-13.422,-1.969
1772935212076.167,-0.0387,0.0283,-0.9981,2.984,-13.633,-1.986
1772935212076.167,-0.0374,0.0286,-0.9991,3.255,-13.44,-1.986
1772935212076.167,-0.0396,0.0285,-1.0026,3.264,-13.431,-1.995
1772935212076.167,-0.0396,0.0284,-1.0041,2.896,-13.422,-1.942
1772935212076.167,-0.0394,0.0273,-1.0089,2.765,-13.379,-1.689
1772935212076.167,-0.0374,0.0287,-1.0128,2.345,-13.256,-1.627
1772935212076.167,-0.0389,0.0264,-1.017,2.319,-13.3,-1.409
1772935212076.167,-0.0382,0.026,-1.0169,1.881,-13.361,-1.558
1772935212076.167,-0.0392,0.0249,-1.0219,1.671,-13.248,-1.426
1772935212076.167,-0.0391,0.0244,-1.0236,1.181,-13.44,-1.575
1772935212076.167,-0.0406,0.0244,-1.0249,0.7,-13.527,-1.435
1772935212076.167,-0.0434,0.0231,-1.0221,-0.105,-13.221,-1.278
1772935212076.167,-0.0475,0.0224,-1.0196,-0.7,-12.539,-1.155
1772935212092.1274,-0.049,0.0217,-1.0153,-1.505,-12.451,-1.067
1772935212092.1274,-0.0526,0.0218,-1.0113,-2.669,-11.777,-1.094
1772935212092.1274,-0.0552,0.0203,-1.0039,-3.649,-10.902,-1.024
1772935212092.1274,-0.0585,0.0186,-0.9974,-4.716,-10.027,-0.989
1772935212092.1274,-0.0628,0.02,-0.9916,-5.819,-8.706,-1.129
1772935212092.1274,-0.0639,0.0194,-0.9839,-7.044,-7.639,-0.945
1772935212092.1274,-0.0686,0.0215,-0.9801,-8.365,-6.282,-1.059
1772935212092.1274,-0.0708,0.022,-0.9718,-9.249,-4.428,-1.015
1772935212092.1274,-0.0744,0.0245,-0.9674,-10.168,-2.581,-0.77
1772935212092.1274,-0.077,0.0246,-0.9675,-11.095,-0.805,-0.718
1772935212092.1274,-0.0737,0.0295,-0.9617,-12.005,1.234,-0.831
1772935212092.1274,-0.0762,0.0292,-0.9612,-12.556,3.036,-0.849
1772935212092.1274,-0.075,0.0282,-0.9611,-12.924,5.215,-0.796
1772935212107.122,-0.0728,0.0314,-0.9586,-13.116,6.825,-0.971
1772935212107.122,-0.0697,0.0361,-0.9607,-13.143,8.356,-0.752
1772935212107.122,-0.0686,0.0382,-0.9603,-12.985,9.931,-0.674
1772935212107.122,-0.0645,0.0406,-0.9588,-12.521,11.2,-0.621
1772935212107.122,-0.0614,0.0431,-0.9578,-11.996,12.346,-0.682
1772935212107.122,-0.059,0.0423,-0.9537,-10.867,12.985,-0.752
1772935212107.122,-0.0547,0.0442,-0.9555,-9.922,13.519,-1.067
1772935212107.122,-0.0509,0.0465,-0.9516,-8.584,13.921,-1.024
1772935212107.122,-0.0491,0.0476,-0.9493,-7.376,13.685,-0.84
1772935212107.122,-0.0456,0.0486,-0.9415,-6.247,13.44,-1.059
1772935212107.122,-0.0407,0.0481,-0.9396,-4.734,13.178,-1.103
1772935212107.122,-0.036,0.049,-0.9357,-3.439,12.679,-1.094
1772935212122.2554,-0.034,0.0464,-0.9304,-2.065,11.786,-1.444
1772935212122.2554,-0.0343,0.0462,-0.9267,-0.892,10.544,-1.426
1772935212122.2554,-0.0326,0.0447,-0.924,0.061,9.38,-1.409
1772935212122.2554,-0.0298,0.0436,-0.9198,1.242,8.024,-1.558
1772935212122.2554,-0.0281,0.0434,-0.9165,2.196,6.65,-1.339
1772935212122.2554,-0.0279,0.0403,-0.9132,3.001,5.425,-1.47
1772935212122.2554,-0.0266,0.0379,-0.9168,3.587,3.666,-1.689
1772935212122.2554,-0.0257,0.0368,-0.913,4.393,2.083,-1.496
1772935212122.2554,-0.0249,0.0359,-0.9139,4.856,0.7,-1.479
1772935212122.2554,-0.0262,0.0315,-0.9121,5.162,-0.735,-1.479
1772935212122.2554,-0.0287,0.0327,-0.9143,5.827,-2.607,-1.601
1772935212122.2554,-0.0278,0.0313,-0.9157,6.011,-4.034,-1.356
1772935212137.7192,-0.0298,0.0284,-0.9154,6.125,-5.381,-1.26
1772935212137.7192,-0.0289,0.0278,-0.9177,6.466,-6.764,-1.269
1772935212137.7192,-0.0298,0.0261,-0.9198,6.606,-7.945,-1.435
1772935212137.7192,-0.0318,0.0278,-0.9226,6.694,-9.38,-1.4
1772935212137.7192,-0.0338,0.027,-0.9224,6.633,-10.115,-1.278
1772935212137.7192,-0.035,0.0249,-0.9265,6.423,-11.366,-1.452
1772935212137.7192,-0.0342,0.0241,-0.9306,6.317,-11.979,-1.452
1772935212137.7192,-0.0393,0.0232,-0.9317,6.213,-12.512,-1.391
1772935212137.7192,-0.0388,0.0229,-0.9348,6.011,-12.81,-1.645
1772935212137.7192,-0.0404,0.0225,-0.9396,5.731,-13.265,-1.417
1772935212137.7192,-0.0401,0.0224,-0.9411,5.495,-13.554,-1.514
1772935212137.7192,-0.0433,0.0231,-0.9448,5.232,-13.414,-1.96
1772935212137.7192,-0.0419,0.0212,-0.9448,5.119,-13.379,-1.811
1772935212153.5522,-0.0416,0.0191,-0.9484,4.55,-13.335,-2.03
1772935212153.5522,-0.0453,0.0204,-0.9521,4.104,-12.801,-1.96
1772935212153.5522,-0.0429,0.0203,-0.9558,4.253,-12.294,-1.995
1772935212153.5522,-0.0464,0.0187,-0.957,3.684,-11.769,-1.942
1772935212153.5522,-0.0456,0.0204,-0.9622,3.22,-11.043,-2.039
1772935212153.5522,-0.0463,0.0181,-0.9684,2.888,-10.211,-1.995
1772935212153.5522,-0.0454,0.0175,-0.9711,2.415,-9.459,-2.161
1772935212153.5522,-0.0457,0.0196,-0.9773,2.074,-8.803,-2.1
1772935212153.5522,-0.0428,0.0202,-0.9827,1.601,-8.033,-2.039
1772935212153.5522,-0.0425,0.0184,-0.9849,1.111,-7.359,-2.065
1772935212153.5522,-0.04,0.0199,-0.9881,0.84,-6.764,-2.188
1772935212153.5522,-0.041,0.022,-0.9915,0.429,-6.143,-2.231
1772935212153.5522,-0.0386,0.0229,-0.9977,0.105,-5.311,-2.047
1772935212169.0215,-0.0362,0.0265,-1.0006,-0.464,-4.891,-2.039
1772935212169.0215,-0.0362,0.0232,-1.0026,-0.665,-3.902,-2.065
1772935212169.0215,-0.0352,0.0269,-1.0056,-1.208,-3.377,-2.074
1772935212169.0215,-0.0354,0.0276,-1.0071,-1.417,-3.255,-1.907
1772935212169.0215,-0.0332,0.0306,-1.0092,-1.951,-2.809,-2.179
1772935212169.0215,-0.0328,0.0293,-1.0111,-1.978,-2.45,-2.047
1772935212169.0215,-0.0328,0.0314,-1.0099,-2.039,-2.03,-2.214
1772935212169.0215,-0.0329,0.0363,-1.0081,-2.336,-1.89,-2.301
1772935212169.0215,-0.0301,0.0357,-1.0113,-2.625,-1.776,-2.389
1772935212169.0215,-0.0312,0.0373,-1.0097,-2.721,-1.969,-2.441
1772935212169.0215,-0.0299,0.0378,-1.0092,-2.94,-1.663,-2.607
1772935212169.0215,-0.0291,0.0394,-1.0089,-2.87,-1.654,-2.599
1772935212185.038,-0.0273,0.0409,-1.0034,-2.958,-1.907,-2.678
1772935212185.038,-0.0271,0.0413,-1.0018,-2.817,-2.004,-2.791
1772935212185.038,-0.0278,0.0413,-0.9983,-2.66,-2.074,-2.581
1772935212185.038,-0.0282,0.0426,-0.9976,-2.643,-1.951,-2.712
1772935212185.038,-0.0251,0.0442,-0.9972,-2.406,-2.135,-2.914
1772935212185.038,-0.0267,0.0435,-0.9953,-2.214,-2.415,-3.001
1772935212185.038,-0.0277,0.0436,-0.9941,-2.03,-2.441,-2.966
1772935212185.038,-0.0259,0.0445,-0.9897,-1.671,-2.625,-3.106
1772935212185.038,-0.0238,0.0439,-0.9891,-1.242,-2.739,-2.888
1772935212185.038,-0.0232,0.0473,-0.985,-0.989,-2.844,-3.054
1772935212185.038,-0.024,0.0461,-0.9844,-0.586,-3.159,-2.922
1772935212185.038,-0.0229,0.0448,-0.9836,-0.306,-3.159,-2.756
1772935212185.038,-0.0224,0.0467,-0.9806,-0.061,-3.316,-2.949
1772935212200.6882,-0.022,0.0475,-0.982,0.507,-3.745,-3.01
1772935212200.6882,-0.0224,0.045,-0.9794,0.84,-3.911,-2.73
1772935212200.6882,-0.0213,0.0465,-0.9798,0.998,-3.701,-2.625
1772935212200.6882,-0.022,0.0471,-0.9819,1.356,-4.13,-2.415
1772935212200.6882,-0.0236,0.0459,-0.9781,1.75,-4.086,-2.126
1772935212200.6882,-0.0218,0.0471,-0.9801,2.24,-4.55,-2.301
1772935212200.6882,-0.0201,0.0482,-0.98,2.345,-4.393,-2.179
1772935212200.6882,-0.0198,0.0459,-0.9814,2.616,-4.34,-2.065
1772935212200.6882,-0.0219,0.0462,-0.9792,2.756,-4.795,-2.494
1772935212200.6882,-0.0198,0.0487,-0.9793,3.062,-4.839,-2.126
1772935212200.6882,-0.0215,0.0465,-0.9787,3.36,-5.285,-1.916
1772935212200.6882,-0.0217,0.0456,-0.9799,3.658,-5.294,-2.091
1772935212200.6882,-0.0179,0.0461,-0.9787,3.64,-5.276,-1.811
1772935212216.4817,-0.0194,0.0404,-0.9787,3.973,-5.591,-1.759
1772935212216.4817,-0.0228,0.0459,-0.978,4.034,-5.364,-1.654
1772935212216.4817,-0.0218,0.044,-0.9765,4.314,-5.705,-1.68
1772935212216.4817,-0.024,0.0403,-0.9765,4.287,-5.906,-1.514
1772935212216.4817,-0.0237,0.0402,-0.9784,4.209,-6.204,-1.444
1772935212216.4817,-0.0261,0.04,-0.9762,4.375,-6.02,-1.321
1772935212216.4817,-0.0268,0.0373,-0.9747,4.497,-6.116,-1.286
1772935212216.4817,-0.0278,0.0378,-0.9763,4.506,-6.099,-1.19
1772935212216.4817,-0.0285,0.0356,-0.9774,4.489,-6.256,-1.155
1772935212216.4817,-0.0285,0.0348,-0.9739,4.524,-6.282,-0.963
1772935212216.4817,-0.0278,0.0341,-0.9738,4.322,-6.282,-1.295
1772935212216.4817,-0.0267,0.0336,-0.976,4.226,-6.239,-1.225
1772935212216.4817,-0.0284,0.0309,-0.9767,4.393,-6.195,-0.866
1772935212231.8262,-0.03,0.0326,-0.9758,4.629,-6.081,-0.901
1772935212231.8262,-0.0318,0.0322,-0.9748,4.445,-5.696,-0.98
1772935212231.8262,-0.0321,0.0277,-0.9767,4.489,-5.793,-0.989
1772935212231.8262,-0.0318,0.0282,-0.9748,4.515,-5.968,-0.98
1772935212231.8262,-0.0317,0.0266,-0.9753,4.664,-5.784,-0.963
1772935212231.8262,-0.0332,0.0262,-0.9766,4.524,-5.495,-0.709
1772935212231.8262,-0.0337,0.0255,-0.978,4.532,-5.679,-0.726
1772935212231.8262,-0.0354,0.0257,-0.9775,4.629,-5.582,-0.849
1772935212231.8262,-0.0348,0.0254,-0.9789,4.218,-5.556,-0.892
1772935212231.8262,-0.0343,0.0256,-0.9783,4.454,-5.46,-1.05
1772935212231.8262,-0.0323,0.0245,-0.9775,4.366,-5.294,-0.936
1772935212231.8262,-0.0365,0.0225,-0.9758,4.506,-5.101,-0.516
1772935212246.9731,-0.0357,0.0234,-0.9819,4.366,-5.136,-0.901
1772935212246.9731,-0.0368,0.0235,-0.9798,4.165,-5.171,-0.989
1772935212246.9731,-0.0376,0.0196,-0.9788,4.218,-5.241,-0.858
1772935212246.9731,-0.038,0.0223,-0.9759,4.454,-5.206,-0.945
1772935212246.9731,-0.0395,0.0201,-0.9746,3.885,-5.031,-0.945
1772935212246.9731,-0.0382,0.0206,-0.9758,3.78,-5.145,-1.05
1772935212246.9731,-0.0404,0.0206,-0.9738,3.789,-4.742,-0.945
1772935212246.9731,-0.0399,0.0234,-0.9767,3.736,-4.865,-1.067
1772935212246.9731,-0.0386,0.0217,-0.9744,3.78,-4.83,-1.085
1772935212246.9731,-0.0396,0.0222,-0.9751,3.964,-4.541,-0.936
1772935212246.9731,-0.0383,0.0214,-0.977,3.964,-4.34,-1.032
1772935212246.9731,-0.0398,0.0226,-0.9787,3.649,-4.226,-1.225
1772935212263.0374,-0.0398,0.0256,-0.9751,3.894,-4.147,-1.006
1772935212263.0374,-0.0382,0.0234,-0.9741,3.789,-4.209,-1.094
1772935212263.0374,-0.0393,0.0245,-0.9779,3.596,-4.147,-1.181
1772935212263.0374,-0.04,0.0255,-0.9764,3.692,-4.497,-0.971
1772935212263.0374,-0.0375,0.0271,-0.979,3.658,-4.34,-1.137
1772935212263.0374,-0.036,0.0274,-0.9788,3.553,-4.104,-1.278
1772935212263.0374,-0.04,0.0281,-0.9798,3.561,-3.859,-1.365
1772935212263.0374,-0.0375,0.0285,-0.9795,3.465,-3.824,-1.347
1772935212263.0374,-0.0375,0.0271,-0.9798,3.5,-4.069,-1.383
1772935212263.0374,-0.0368,0.0287,-0.9801,3.325,-4.296,-1.383
1772935212263.0374,-0.0354,0.0303,-0.9793,3.369,-4.156,-1.47
1772935212263.0374,-0.037,0.0301,-0.9839,3.605,-3.973,-1.54
1772935212263.0374,-0.0371,0.0314,-0.9822,3.605,-4.235,-1.514
1772935212278.6472,-0.036,0.0312,-0.9849,3.5,-4.244,-1.601
1772935212278.6472,-0.0353,0.0317,-0.9831,3.29,-4.296,-1.619
1772935212278.6472,-0.0353,0.0321,-0.9845,3.5,-4.436,-1.417
1772935212278.6472,-0.0357,0.0323,-0.9866,3.465,-4.76,-1.444
1772935212278.6472,-0.0345,0.0325,-0.9838,3.325,-4.611,-1.488
1772935212278.6472,-0.0346,0.0318,-0.9886,3.211,-4.699,-1.584
1772935212278.6472,-0.0365,0.0304,-0.9888,3.465,-4.961,-1.391
1772935212278.6472,-0.0343,0.0333,-0.9872,3.535,-5.18,-1.015
1772935212278.6472,-0.0329,0.0331,-0.986,3.272,-5.346,-1.409
1772935212278.6472,-0.035,0.0326,-0.9873,3.185,-5.355,-1.461
1772935212278.6472,-0.0329,0.0314,-0.9872,3.316,-5.53,-1.444
1772935212278.6472,-0.0342,0.0337,-0.9889,3.264,-5.565,-1.488
1772935212278.6472,-0.0321,0.034,-0.9898,3.237,-5.889,-1.286
1772935212294.4824,-0.0339,0.0326,-0.9876,3.369,-5.994,-1.4
1772935212294.4824,-0.0346,0.0321,-0.9858,3.36,-6.143,-1.619
1772935212294.4824,-0.0347,0.0315,-0.9845,3.413,-6.16,-1.593
1772935212294.4824,-0.0346,0.0321,-0.9864,3.334,-6.239,-1.426
1772935212294.4824,-0.0357,0.0311,-0.9856,3.255,-6.317,-1.391
1772935212294.4824,-0.0357,0.0307,-0.9843,3.596,-6.676,-1.584
1772935212294.4824,-0.0339,0.0312,-0.9843,3.797,-6.851,-1.566
1772935212294.4824,-0.0353,0.0327,-0.9838,3.57,-7.053,-1.619
1772935212294.4824,-0.0369,0.0308,-0.9814,3.605,-6.939,-1.759
1772935212294.4824,-0.0359,0.0315,-0.9819,3.509,-6.86,-1.68
1772935212294.4824,-0.0359,0.0314,-0.9784,3.5,-7.166,-1.61
1772935212294.4824,-0.0379,0.0296,-0.9784,3.728,-7.385,-1.645
1772935212294.4824,-0.0406,0.0314,-0.9764,3.465,-7.096,-1.698
1772935212310.0264,-0.0401,0.0315,-0.9754,3.482,-6.965,-1.82
1772935212310.0264,-0.0391,0.0307,-0.9761,3.658,-7.053,-1.636
1772935212310.0264,-0.0419,0.032,-0.9753,3.509,-7.219,-1.75
1772935212310.0264,-0.0425,0.032,-0.9732,3.78,-7.254,-1.881
1772935212310.0264,-0.0418,0.0273,-0.9761,3.421,-7.184,-1.89
1772935212310.0264,-0.0407,0.0311,-0.9785,3.334,-7.157,-1.969
1772935212310.0264,-0.0401,0.0316,-0.9753,3.474,-7.157,-1.811
1772935212310.0264,-0.0395,0.0297,-0.9733,3.474,-7.061,-1.846
1772935212310.0264,-0.0403,0.0305,-0.9743,3.334,-6.808,-1.969
1772935212310.0264,-0.0416,0.0325,-0.9744,3.526,-6.79,-1.969
1772935212310.0264,-0.0414,0.0306,-0.9743,3.544,-6.764,-2.039
1772935212310.0264,-0.0406,0.0318,-0.9742,3.246,-6.816,-1.82
1772935212324.9775,-0.0398,0.0314,-0.976,3.421,-6.764,-1.82
1772935212324.9775,-0.0407,0.0293,-0.9767,3.57,-6.624,-1.802
1772935212324.9775,-0.0398,0.029,-0.9773,3.482,-6.606,-1.89
1772935212324.9775,-0.0394,0.0279,-0.9784,3.605,-6.72,-1.855
1772935212324.9775,-0.0414,0.0281,-0.9786,3.57,-6.772,-1.96
1772935212324.9775,-0.0411,0.0286,-0.9795,3.701,-6.702,-1.811
1772935212324.9775,-0.04,0.0306,-0.9827,3.544,-6.851,-1.881
1772935212324.9775,-0.0375,0.0307,-0.9806,3.5,-6.729,-1.566
1772935212324.9775,-0.0398,0.0311,-0.9859,3.447,-6.519,-1.584
1772935212324.9775,-0.0409,0.0307,-0.9813,3.386,-6.344,-1.558
1772935212324.9775,-0.0396,0.0293,-0.9822,3.482,-6.685,-1.575
1772935212324.9775,-0.0377,0.0303,-0.9821,3.404,-6.58,-1.645
1772935212324.9775,-0.0391,0.0329,-0.9822,2.966,-6.685,-1.706
1772935212340.5078,-0.0358,0.0315,-0.9839,2.958,-6.3,-1.759
1772935212340.5078,-0.0381,0.0321,-0.9822,3.08,-6.562,-1.461
1772935212340.5078,-0.0385,0.0324,-0.9818,3.036,-6.755,-1.558
1772935212340.5078,-0.0415,0.0306,-0.9856,2.791,-6.466,-1.61
1772935212340.5078,-0.0395,0.0301,-0.9864,2.817,-6.344,-1.811
1772935212340.5078,-0.0398,0.0322,-0.9839,2.879,-6.405,-1.837
1772935212340.5078,-0.0418,0.0315,-0.9874,2.817,-6.265,-1.575
1772935212340.5078,-0.0391,0.0312,-0.9833,2.73,-6.379,-1.732
1772935212340.5078,-0.0395,0.0359,-0.9833,2.712,-6.51,-1.925
1772935212340.5078,-0.0386,0.0353,-0.9836,2.511,-6.169,-1.846
1772935212340.5078,-0.0395,0.0348,-0.9842,2.607,-5.836,-1.732
1772935212340.5078,-0.0381,0.0358,-0.9817,2.634,-5.67,-1.759
1772935212355.946,-0.0407,0.037,-0.983,2.529,-5.661,-1.584
1772935212355.946,-0.0389,0.0367,-0.9843,2.397,-5.609,-1.715
1772935212355.946,-0.0387,0.0388,-0.9821,2.45,-5.32,-1.802
1772935212355.946,-0.0412,0.0372,-0.9829,2.52,-5.372,-1.811
1772935212355.946,-0.0413,0.0371,-0.9807,2.502,-5.224,-1.986
1772935212355.946,-0.0427,0.0354,-0.9829,2.336,-4.883,-1.706
1772935212355.946,-0.0439,0.0389,-0.9825,2.502,-4.839,-1.732
1772935212355.946,-0.0429,0.0357,-0.9836,2.748,-4.655,-1.995
1772935212355.946,-0.0424,0.0371,-0.9823,2.686,-4.777,-1.978
1772935212355.946,-0.0427,0.0376,-0.9837,2.66,-4.655,-1.925
1772935212355.946,-0.0436,0.0377,-0.9809,2.826,-4.393,-1.969
1772935212355.946,-0.0403,0.0373,-0.9809,2.748,-4.086,-1.698
1772935212355.946,-0.0447,0.0371,-0.9805,2.958,-4.287,-1.785
1772935212371.7483,-0.0423,0.036,-0.9821,3.098,-4.191,-2.03
1772935212371.7483,-0.0441,0.0363,-0.9817,2.966,-4.41,-1.907
1772935212371.7483,-0.0422,0.0384,-0.9806,2.993,-4.279,-1.829
1772935212371.7483,-0.0406,0.0368,-0.9809,3.019,-4.2,-1.916
1772935212371.7483,-0.0396,0.0377,-0.9804,3.15,-3.999,-1.855
1772935212371.7483,-0.0406,0.0365,-0.9804,3.185,-4.025,-1.846
1772935212371.7483,-0.0416,0.0358,-0.9804,3.229,-4.165,-1.986
1772935212371.7483,-0.0411,0.0349,-0.98,3.203,-3.902,-1.899
1772935212371.7483,-0.04,0.0349,-0.9806,3.587,-4.191,-1.706
1772935212371.7483,-0.0397,0.0348,-0.9804,3.518,-4.13,-1.601
1772935212371.7483,-0.0389,0.035,-0.9787,3.43,-4.436,-1.82
1772935212371.7483,-0.039,0.0345,-0.9803,3.526,-4.27,-1.759
1772935212387.638,-0.037,0.0349,-0.9787,3.561,-4.218,-1.645
1772935212387.638,-0.0362,0.0359,-0.9778,3.649,-4.76,-1.864
1772935212387.638,-0.0343,0.0352,-0.9797,3.623,-4.673,-1.907
1772935212387.638,-0.0362,0.0341,-0.9788,3.754,-4.655,-1.68
1772935212387.638,-0.0348,0.0338,-0.9794,3.596,-4.76,-1.619
1772935212387.638,-0.0357,0.034,-0.9828,3.771,-5.014,-1.689
1772935212387.638,-0.0342,0.0335,-0.9823,3.57,-5.355,-1.794
1772935212387.638,-0.0364,0.0346,-0.9811,3.596,-5.303,-1.601
1772935212387.638,-0.0332,0.034,-0.9786,3.728,-5.504,-1.61
1772935212387.638,-0.0353,0.0334,-0.9802,3.736,-5.399,-1.54
1772935212387.638,-0.0364,0.0338,-0.9833,3.631,-5.626,-1.794
1772935212387.638,-0.0337,0.0325,-0.9794,3.78,-5.696,-1.627
1772935212387.638,-0.0336,0.0333,-0.98,3.649,-5.749,-1.768
1772935212403.721,-0.0336,0.032,-0.9809,3.719,-6.081,-1.846
1772935212403.721,-0.0342,0.0342,-0.9817,3.43,-6.055,-1.741
1772935212403.721,-0.0342,0.0341,-0.9804,3.535,-6.213,-1.829
1772935212403.721,-0.0339,0.0337,-0.9795,3.623,-6.169,-1.837
1772935212403.721,-0.0334,0.0339,-0.9834,3.43,-6.388,-1.785
1772935212403.721,-0.0342,0.0339,-0.9826,3.229,-6.291,-1.741
1772935212403.721,-0.0346,0.0335,-0.9826,3.229,-6.405,-1.593
1772935212403.721,-0.035,0.035,-0.9811,3.377,-6.668,-1.785
1772935212403.721,-0.0345,0.032,-0.9817,3.246,-6.711,-1.916
1772935212403.721,-0.0331,0.0328,-0.9835,3.115,-6.764,-1.811
1772935212403.721,-0.0337,0.0312,-0.9855,3.106,-6.633,-1.768
1772935212403.721,-0.0337,0.0323,-0.9825,3.08,-6.878,-1.881
1772935212403.721,-0.0341,0.0299,-0.9832,2.861,-6.676,-1.663
1772935212419.265,-0.0338,0.0317,-0.9838,2.826,-6.729,-1.864
1772935212419.265,-0.0341,0.0297,-0.9864,2.8,-6.843,-2.039
1772935212419.265,-0.0328,0.0299,-0.9855,2.634,-6.982,-2.17
1772935212419.265,-0.0338,0.0308,-0.9855,2.424,-6.825,-1.916
1772935212419.265,-0.0322,0.0278,-0.9862,2.371,-6.816,-2.1
1772935212419.265,-0.0332,0.0286,-0.9873,2.467,-7.122,-1.732
1772935212419.265,-0.0316,0.0275,-0.9877,2.441,-7.061,-1.654
1772935212419.265,-0.0321,0.0246,-0.9872,2.52,-7.07,-1.531
1772935212419.265,-0.035,0.0273,-0.9851,2.415,-7.157,-1.496
1772935212419.265,-0.0332,0.0264,-0.9872,2.362,-7.149,-1.383
1772935212419.265,-0.0337,0.0263,-0.9895,2.292,-7.114,-1.4
1772935212419.265,-0.0339,0.024,-0.9865,2.1,-7.061,-1.356
1772935212419.265,-0.0337,0.0239,-0.9871,2.047,-7.009,-1.304
1772935212434.8086,-0.034,0.0234,-0.984,1.855,-7.0,-1.216
1772935212434.8086,-0.0332,0.0237,-0.9834,2.03,-7.184,-1.067
1772935212434.8086,-0.0345,0.0226,-0.9852,1.986,-7.061,-1.312
1772935212434.8086,-0.0345,0.0245,-0.9851,2.03,-6.843,-1.321
1772935212434.8086,-0.035,0.0239,-0.9817,1.846,-6.492,-1.05
1772935212434.8086,-0.0342,0.0241,-0.9832,2.179,-6.589,-0.954
1772935212434.8086,-0.0356,0.0235,-0.9831,2.214,-6.431,-1.024
1772935212434.8086,-0.0335,0.0249,-0.9809,2.074,-6.554,-1.032
1772935212434.8086,-0.0325,0.0251,-0.9825,1.986,-6.44,-1.067
1772935212434.8086,-0.0345,0.0245,-0.9804,2.118,-6.388,-0.761
1772935212434.8086,-0.0329,0.0249,-0.9781,2.065,-6.309,-0.779
1772935212434.8086,-0.035,0.0266,-0.9819,2.047,-5.906,-0.875
1772935212450.521,-0.0337,0.0266,-0.9783,2.214,-5.845,-0.761
1772935212450.521,-0.0323,0.0287,-0.983,2.205,-5.705,-0.674
1772935212450.521,-0.0323,0.0295,-0.9806,2.354,-5.705,-0.761
1772935212450.521,-0.034,0.0293,-0.9792,2.564,-5.862,-0.892
1772935212450.521,-0.0326,0.0345,-0.9791,2.59,-5.688,-0.866
1772935212450.521,-0.0313,0.0353,-0.9795,2.686,-5.749,-0.936
1772935212450.521,-0.0336,0.0359,-0.9815,2.835,-5.513,-0.595
1772935212450.521,-0.0308,0.0348,-0.9805,2.826,-4.987,-0.927
1772935212450.521,-0.031,0.0364,-0.9798,2.817,-5.189,-0.927
1772935212450.521,-0.031,0.0381,-0.9809,3.019,-5.434,-0.971
1772935212450.521,-0.0304,0.0398,-0.9798,3.019,-5.189,-0.831
1772935212450.521,-0.03,0.0423,-0.9831,2.853,-5.18,-0.927
1772935212450.521,-0.0305,0.0422,-0.9822,3.246,-5.18,-1.032
1772935212465.5452,-0.029,0.0428,-0.9825,3.334,-5.093,-1.225
1772935212465.5452,-0.0305,0.0412,-0.9839,3.299,-5.46,-1.164
1772935212465.5452,-0.0301,0.042,-0.9828,3.159,-5.311,-1.312
1772935212465.5452,-0.0295,0.0437,-0.9859,3.203,-5.25,-1.426
1772935212465.5452,-0.0304,0.043,-0.9845,3.561,-5.355,-1.19
1772935212465.5452,-0.0315,0.044,-0.9832,3.728,-5.355,-1.558
1772935212465.5452,-0.0282,0.0444,-0.9833,3.605,-5.486,-1.365
1772935212465.5452,-0.0292,0.0443,-0.9847,3.806,-5.495,-1.278
1772935212465.5452,-0.0312,0.0461,-0.9825,3.43,-5.346,-1.522
1772935212465.5452,-0.0312,0.0446,-0.9836,3.728,-5.442,-1.435
1772935212465.5452,-0.03,0.0437,-0.9865,3.596,-5.609,-1.593
1772935212465.5452,-0.0296,0.0426,-0.9839,3.553,-5.696,-1.356
1772935212465.5452,-0.0312,0.0436,-0.9847,3.736,-5.556,-1.514
1772935212481.3242,-0.0326,0.0431,-0.9851,3.806,-5.6,-1.505
1772935212481.3242,-0.0301,0.0422,-0.9838,3.763,-5.582,-1.33
1772935212481.3242,-0.032,0.0407,-0.9836,3.675,-5.801,-0.858
1772935212481.3242,-0.0328,0.0396,-0.9856,4.051,-5.854,-0.919
1772935212481.3242,-0.0312,0.0383,-0.986,3.999,-5.897,-1.181
1772935212481.3242,-0.0319,0.0413,-0.9839,4.025,-5.854,-1.199
1772935212481.3242,-0.0325,0.0375,-0.9828,4.069,-5.897,-1.216
1772935212481.3242,-0.0347,0.0356,-0.9845,4.314,-6.282,-1.181
1772935212481.3242,-0.0356,0.037,-0.9871,4.209,-6.282,-0.998
1772935212481.3242,-0.0345,0.0369,-0.9846,4.156,-6.134,-1.111
1772935212481.3242,-0.0339,0.0341,-0.9858,4.27,-5.968,-1.024
1772935212481.3242,-0.0343,0.0371,-0.9836,4.112,-5.985,-0.936
1772935212496.9436,-0.0354,0.0353,-0.986,4.305,-6.055,-1.103
1772935212496.9436,-0.0356,0.0351,-0.9826,4.419,-5.906,-0.971
1772935212496.9436,-0.0348,0.0335,-0.9841,4.532,-5.871,-0.7
1772935212496.9436,-0.036,0.0329,-0.9823,4.576,-5.976,-0.989
1772935212496.9436,-0.0364,0.0337,-0.9855,4.384,-6.116,-0.963
1772935212496.9436,-0.0373,0.0338,-0.9838,4.524,-6.116,-1.015
1772935212496.9436,-0.0356,0.0319,-0.9842,4.48,-6.178,-1.059
1772935212496.9436,-0.0381,0.0346,-0.9839,4.83,-6.186,-1.216
1772935212496.9436,-0.0364,0.0328,-0.9825,4.751,-5.985,-1.216
1772935212496.9436,-0.039,0.0351,-0.9848,4.804,-6.046,-1.216
1772935212496.9436,-0.0361,0.0348,-0.9813,4.777,-6.055,-1.278
1772935212496.9436,-0.0374,0.0344,-0.9829,4.874,-6.221,-1.129
1772935212496.9436,-0.0375,0.0364,-0.983,4.996,-6.099,-1.383
1772935212513.033,-0.0364,0.0339,-0.9822,4.952,-6.143,-1.417
1772935212513.033,-0.0389,0.0361,-0.9833,4.952,-5.968,-1.724
1772935212513.033,-0.0402,0.0344,-0.9829,4.891,-5.941,-1.776
1772935212513.033,-0.0391,0.0363,-0.9827,5.049,-6.169,-1.916
1772935212513.033,-0.0397,0.0375,-0.9828,4.725,-6.519,-1.925
1772935212513.033,-0.0382,0.0367,-0.9845,4.76,-6.151,-1.768
1772935212513.033,-0.0392,0.0367,-0.9841,4.734,-6.405,-1.907
1772935212513.033,-0.0403,0.0365,-0.9867,4.804,-6.396,-2.257
1772935212513.033,-0.037,0.0351,-0.985,4.961,-6.291,-2.161
1772935212513.033,-0.0391,0.0366,-0.9812,4.874,-6.291,-2.039
1772935212513.033,-0.0368,0.0376,-0.9827,4.821,-6.186,-2.284
1772935212513.033,-0.0375,0.0378,-0.9858,4.874,-6.344,-2.362
1772935212513.033,-0.0377,0.0363,-0.9838,4.646,-6.484,-2.319
1772935212528.3665,-0.0382,0.0378,-0.9844,4.716,-6.598,-2.52
1772935212528.3665,-0.0367,0.0352,-0.9855,4.786,-6.484,-2.616
1772935212528.3665,-0.036,0.0342,-0.9812,4.795,-6.825,-2.634
1772935212528.3665,-0.0381,0.0364,-0.9832,4.725,-6.562,-2.669
1772935212528.3665,-0.0366,0.0328,-0.9856,4.603,-6.633,-2.459
1772935212528.3665,-0.0351,0.034,-0.9837,4.576,-6.737,-2.38
1772935212528.3665,-0.0368,0.0321,-0.9811,4.532,-6.615,-2.529
1772935212528.3665,-0.0381,0.0318,-0.9823,4.611,-6.834,-2.529
1772935212528.3665,-0.0369,0.0313,-0.9828,4.296,-6.729,-2.581
1772935212528.3665,-0.034,0.0326,-0.984,4.261,-6.659,-2.415
1772935212528.3665,-0.0362,0.0341,-0.981,4.357,-6.624,-2.424
1772935212528.3665,-0.0359,0.0314,-0.9827,4.393,-6.869,-2.354
1772935212544.4407,-0.0371,0.0319,-0.9816,4.139,-7.122,-2.301
1772935212544.4407,-0.0377,0.0304,-0.9823,4.139,-7.07,-2.188
1772935212544.4407,-0.038,0.0298,-0.9809,4.051,-7.184,-2.161
1772935212544.4407,-0.0365,0.0285,-0.9779,4.165,-7.009,-2.538
1772935212544.4407,-0.035,0.0271,-0.9773,4.095,-6.851,-2.223
1772935212544.4407,-0.0352,0.0278,-0.9764,3.99,-6.79,-2.249
1772935212544.4407,-0.0371,0.0268,-0.9775,3.929,-6.912,-2.231
1772935212544.4407,-0.0379,0.0272,-0.9764,4.034,-7.018,-2.047
1772935212544.4407,-0.0393,0.0271,-0.9755,4.13,-6.878,-2.047
1772935212544.4407,-0.0378,0.0268,-0.9722,3.85,-6.991,-2.03
1772935212544.4407,-0.0394,0.0257,-0.9758,4.034,-6.676,-2.013
1772935212544.4407,-0.0374,0.0267,-0.9737,4.06,-6.589,-1.986
1772935212544.4407,-0.0379,0.0226,-0.9733,3.955,-7.114,-2.1
1772935212559.8022,-0.0378,0.024,-0.9737,4.077,-6.939,-1.951
1772935212559.8022,-0.0396,0.0271,-0.9734,4.043,-6.519,-1.671
1772935212559.8022,-0.0395,0.0264,-0.9735,3.938,-6.431,-1.899
1772935212559.8022,-0.0365,0.024,-0.9734,4.077,-6.527,-1.925
1772935212559.8022,-0.0384,0.025,-0.975,3.964,-6.431,-1.925
1772935212559.8022,-0.0376,0.0253,-0.974,4.051,-6.388,-1.855
1772935212559.8022,-0.0396,0.0263,-0.97,4.086,-6.274,-1.715
1772935212559.8022,-0.0375,0.0268,-0.9705,4.069,-6.125,-1.811
1772935212559.8022,-0.0376,0.0259,-0.9709,4.016,-6.265,-1.776
1772935212559.8022,-0.0388,0.0247,-0.9697,3.911,-6.204,-1.689
1772935212559.8022,-0.0387,0.0258,-0.9687,3.981,-6.064,-1.829
1772935212559.8022,-0.0366,0.0266,-0.9693,4.095,-5.968,-1.855
1772935212559.8022,-0.0378,0.0284,-0.9717,3.964,-5.749,-1.671
1772935212575.039,-0.0387,0.0276,-0.969,3.938,-5.784,-1.776
1772935212575.039,-0.0365,0.0271,-0.9687,3.902,-5.924,-1.794
1772935212575.039,-0.0367,0.0283,-0.9695,4.13,-5.994,-1.811
1772935212575.039,-0.0375,0.029,-0.971,4.034,-5.845,-1.811
1772935212575.039,-0.0389,0.0292,-0.9695,3.929,-5.661,-1.89
1772935212575.039,-0.0371,0.0289,-0.9719,3.911,-5.478,-2.021
1772935212575.039,-0.039,0.0279,-0.9692,3.868,-5.442,-1.934
1772935212575.039,-0.0359,0.0301,-0.9698,3.728,-5.661,-1.776
1772935212575.039,-0.0373,0.0284,-0.9698,3.736,-5.635,-1.907
1772935212575.039,-0.0378,0.0315,-0.9701,3.763,-5.285,-1.934
1772935212575.039,-0.0363,0.03,-0.9711,3.797,-5.355,-1.741
1772935212575.039,-0.0369,0.0307,-0.9738,3.447,-5.53,-1.732
1772935212590.5635,-0.0375,0.0303,-0.9711,3.447,-5.67,-1.593
1772935212590.5635,-0.0358,0.0304,-0.97,3.535,-5.749,-1.627
1772935212590.5635,-0.0372,0.0321,-0.9722,3.579,-5.556,-1.837
1772935212590.5635,-0.0351,0.03,-0.974,3.482,-5.539,-1.706
1772935212590.5635,-0.0348,0.0298,-0.9711,3.404,-5.416,-1.785
1772935212590.5635,-0.0357,0.0298,-0.9746,3.211,-5.434,-1.925
1772935212590.5635,-0.0384,0.0294,-0.9732,3.377,-5.556,-1.82
1772935212590.5635,-0.035,0.0302,-0.9744,3.272,-5.609,-1.75
1772935212590.5635,-0.0368,0.0293,-0.9744,3.281,-5.355,-2.126
1772935212590.5635,-0.0393,0.0289,-0.9752,3.089,-5.565,-1.881
1772935212590.5635,-0.0367,0.0332,-0.9739,3.264,-5.407,-1.715
1772935212590.5635,-0.0372,0.0297,-0.9724,3.167,-5.539,-1.68
1772935212590.5635,-0.0359,0.0307,-0.9742,3.141,-5.504,-1.575
1772935212605.8293,-0.0362,0.0305,-0.9745,3.176,-5.416,-1.75
1772935212605.8293,-0.0359,0.0304,-0.9744,3.124,-5.67,-1.619
1772935212605.8293,-0.0375,0.0293,-0.9754,3.159,-5.723,-1.663
1772935212605.8293,-0.038,0.0303,-0.975,3.098,-5.626,-1.356
1772935212605.8293,-0.0362,0.0314,-0.9778,3.071,-5.548,-1.295
1772935212605.8293,-0.0351,0.0298,-0.974,2.94,-5.442,-1.286
1772935212605.8293,-0.0367,0.0317,-0.9753,3.159,-5.416,-1.461
1772935212605.8293,-0.0379,0.0294,-0.974,3.08,-5.259,-1.347
1772935212605.8293,-0.036,0.029,-0.9753,2.958,-5.504,-1.593
1772935212605.8293,-0.0363,0.0318,-0.9734,2.861,-5.67,-1.575
1772935212605.8293,-0.0381,0.0289,-0.9774,2.879,-5.425,-1.435
1772935212605.8293,-0.0346,0.0286,-0.9755,2.958,-5.539,-1.479
1772935212621.35,-0.0367,0.0307,-0.976,3.001,-5.67,-1.391
1772935212621.35,-0.0359,0.0285,-0.9775,2.905,-5.652,-1.321
1772935212621.35,-0.0357,0.0293,-0.9777,3.22,-5.451,-1.452
1772935212621.35,-0.0362,0.0304,-0.976,3.272,-5.469,-1.426
1772935212621.35,-0.0356,0.0299,-0.9795,3.089,-5.652,-1.347
1772935212621.35,-0.0375,0.0311,-0.9776,3.001,-5.355,-1.111
1772935212621.35,-0.0366,0.0305,-0.9771,3.01,-5.416,-0.989
1772935212621.35,-0.0368,0.0282,-0.9787,2.966,-5.355,-1.103
1772935212621.35,-0.035,0.029,-0.9786,3.185,-5.548,-1.059
1772935212621.35,-0.0383,0.0282,-0.9789,3.098,-5.495,-1.26
1772935212621.35,-0.0361,0.0285,-0.9798,3.08,-5.442,-1.173
1772935212621.35,-0.0365,0.029,-0.9815,3.054,-5.434,-1.19
1772935212621.35,-0.0373,0.031,-0.9789,3.272,-5.504,-0.963
1772935212637.1536,-0.037,0.0302,-0.981,3.071,-5.574,-1.094
1772935212637.1536,-0.0376,0.0285,-0.9825,3.22,-5.434,-1.216
1772935212637.1536,-0.0364,0.031,-0.9815,3.377,-5.617,-1.208
1772935212637.1536,-0.0375,0.0297,-0.9822,3.246,-5.556,-1.19
1772935212637.1536,-0.0378,0.0297,-0.9814,3.036,-5.53,-1.33
1772935212637.1536,-0.0373,0.0298,-0.9823,3.237,-5.486,-1.111
1772935212637.1536,-0.0363,0.028,-0.9823,3.176,-5.635,-1.33
1772935212637.1536,-0.0371,0.0306,-0.9842,3.132,-5.548,-1.435
1772935212637.1536,-0.0387,0.0302,-0.9832,3.316,-5.582,-1.278
1772935212637.1536,-0.0364,0.0298,-0.9842,3.194,-5.504,-1.33
1772935212637.1536,-0.0359,0.0304,-0.9833,3.124,-5.574,-1.383
1772935212637.1536,-0.0396,0.0309,-0.9845,3.229,-5.679,-1.383
1772935212637.1536,-0.0374,0.0314,-0.9853,3.106,-5.679,-1.339
1772935212652.4736,-0.0395,0.0306,-0.9869,2.975,-5.705,-1.295
1772935212652.4736,-0.0367,0.0304,-0.9847,3.106,-5.968,-1.304
1772935212652.4736,-0.039,0.0337,-0.9862,3.071,-5.845,-1.461
1772935212652.4736,-0.038,0.0318,-0.9875,3.115,-5.836,-1.417
1772935212652.4736,-0.0392,0.0335,-0.9862,3.167,-5.565,-1.417
1772935212652.4736,-0.0366,0.0321,-0.9855,3.194,-5.749,-1.435
1772935212652.4736,-0.039,0.0351,-0.9865,3.194,-5.897,-1.426
1772935212652.4736,-0.0387,0.0325,-0.987,3.089,-5.749,-1.435
1772935212652.4736,-0.04,0.0346,-0.9852,3.325,-5.784,-1.522
1772935212652.4736,-0.0382,0.0359,-0.9848,3.36,-5.906,-1.654
1772935212652.4736,-0.0393,0.0337,-0.986,3.395,-5.819,-1.619
1772935212652.4736,-0.0376,0.0337,-0.9877,3.413,-5.889,-1.794
1772935212668.345,-0.0383,0.0335,-0.9868,3.421,-5.74,-1.479
1772935212668.345,-0.0384,0.0347,-0.9886,3.377,-5.924,-1.312
1772935212668.345,-0.0382,0.035,-0.9888,3.491,-5.941,-1.4
1772935212668.345,-0.0392,0.0346,-0.988,3.308,-5.635,-1.286
1772935212668.345,-0.0382,0.0348,-0.9879,3.43,-5.565,-1.304
1772935212668.345,-0.0349,0.0351,-0.9883,3.553,-5.889,-1.584
1772935212668.345,-0.0376,0.0354,-0.9886,3.5,-5.819,-1.627
1772935212668.345,-0.038,0.0379,-0.9891,3.614,-5.845,-1.663
1772935212668.345,-0.0383,0.0356,-0.9894,3.553,-5.591,-1.391
1772935212668.345,-0.0378,0.0379,-0.9894,3.596,-5.442,-1.304
1772935212668.345,-0.0385,0.0365,-0.9889,3.369,-5.556,-1.4
1772935212668.345,-0.0374,0.0359,-0.9903,3.509,-5.539,-1.444
1772935212668.345,-0.0406,0.0353,-0.9873,3.771,-5.626,-1.426
1772935212683.937,-0.0365,0.0357,-0.9875,3.666,-5.696,-1.558
1772935212683.937,-0.0371,0.0342,-0.9909,3.649,-5.723,-1.4
1772935212683.937,-0.0374,0.0325,-0.9923,3.605,-5.784,-1.383
1772935212683.937,-0.0373,0.034,-0.9903,3.771,-5.521,-1.496
1772935212683.937,-0.0359,0.0307,-0.9905,3.78,-5.539,-1.435
1772935212683.937,-0.0379,0.0309,-0.9889,3.902,-5.871,-1.417
1772935212683.937,-0.0364,0.0282,-0.9895,3.815,-5.845,-1.558
1772935212683.937,-0.036,0.0312,-0.9892,3.833,-5.574,-1.505
1772935212683.937,-0.0355,0.0293,-0.9886,3.763,-5.889,-1.321
1772935212683.937,-0.0365,0.0299,-0.9914,3.929,-5.95,-1.304
1772935212683.937,-0.0363,0.0271,-0.9881,4.051,-6.081,-1.19
1772935212683.937,-0.0357,0.0267,-0.9895,4.077,-6.265,-1.26
1772935212683.937,-0.0364,0.0279,-0.9876,4.043,-6.265,-1.19
1772935212699.7734,-0.0353,0.0246,-0.9883,3.876,-6.134,-1.164
1772935212699.7734,-0.0361,0.0255,-0.9883,3.745,-6.072,-1.278
1772935212699.7734,-0.0334,0.0246,-0.9859,4.069,-6.099,-1.129
1772935212699.7734,-0.0345,0.0206,-0.9874,4.043,-6.221,-0.805
1772935212699.7734,-0.0344,0.0213,-0.9848,4.086,-6.23,-1.032
1772935212699.7734,-0.0348,0.0206,-0.9862,4.244,-6.3,-1.024
1772935212699.7734,-0.0367,0.0185,-0.9877,3.981,-6.107,-0.901
1772935212699.7734,-0.0359,0.0187,-0.9863,4.025,-6.256,-0.901
1772935212699.7734,-0.0355,0.0175,-0.9854,4.095,-6.247,-0.892
1772935212699.7734,-0.0359,0.0181,-0.9848,4.2,-6.239,-0.919
1772935212699.7734,-0.0346,0.0163,-0.9833,4.104,-6.527,-0.989
1772935212699.7734,-0.0352,0.0156,-0.9845,3.955,-6.388,-0.945
1772935212715.5232,-0.034,0.0154,-0.984,3.876,-6.213,-0.866
1772935212715.5232,-0.0323,0.0159,-0.9831,3.789,-6.186,-0.779
1772935212715.5232,-0.0367,0.0176,-0.9823,4.077,-6.282,-0.586
1772935212715.5232,-0.034,0.0162,-0.9809,3.964,-6.317,-0.814
1772935212715.5232,-0.035,0.0156,-0.9803,4.13,-6.335,-0.752
1772935212715.5232,-0.0356,0.0146,-0.9797,3.964,-6.107,-0.665
1772935212715.5232,-0.0337,0.0148,-0.9811,4.034,-6.186,-0.674
1772935212715.5232,-0.0354,0.0152,-0.9804,3.902,-6.195,-0.744
1772935212715.5232,-0.0359,0.0148,-0.9804,4.06,-6.064,-0.752
1772935212715.5232,-0.0374,0.0155,-0.9807,4.121,-5.915,-0.796
1772935212715.5232,-0.0346,0.0173,-0.9788,3.902,-6.037,-0.77
1772935212715.5232,-0.035,0.0159,-0.9784,3.859,-6.107,-0.892
1772935212715.5232,-0.0328,0.0195,-0.9797,4.043,-5.521,-0.621
1772935212730.7297,-0.0361,0.0188,-0.9799,3.806,-5.539,-0.525
1772935212730.7297,-0.0344,0.0214,-0.9792,3.929,-5.548,-0.735
1772935212730.7297,-0.0368,0.0179,-0.9793,3.973,-5.626,-0.866
1772935212730.7297,-0.039,0.0221,-0.9812,3.999,-5.574,-0.971
1772935212730.7297,-0.0379,0.0246,-0.9822,3.92,-5.723,-1.181
1772935212730.7297,-0.0374,0.0234,-0.9842,3.719,-5.556,-0.945
1772935212730.7297,-0.0387,0.023,-0.983,3.797,-5.609,-1.085
1772935212730.7297,-0.0384,0.024,-0.9836,4.043,-5.617,-1.216
1772935212730.7297,-0.0373,0.0265,-0.9865,3.981,-5.416,-1.164
1772935212730.7297,-0.0365,0.0261,-0.9867,3.824,-5.723,-1.409
1772935212730.7297,-0.0393,0.0281,-0.985,3.815,-5.766,-1.391
1772935212730.7297,-0.0379,0.0295,-0.991,4.077,-5.862,-1.321
1772935212746.387,-0.039,0.0321,-0.9912,4.069,-5.968,-1.339
1772935212746.387,-0.037,0.0293,-0.9899,4.016,-5.941,-1.496
1772935212746.387,-0.0391,0.032,-0.9959,4.034,-5.95,-1.706
1772935212746.387,-0.0366,0.0298,-0.9961,4.156,-6.204,-1.864
1772935212746.387,-0.0387,0.0314,-0.9975,4.235,-6.317,-1.82
1772935212746.387,-0.0368,0.0356,-0.9991,4.419,-6.668,-1.881
1772935212746.387,-0.0379,0.0356,-0.9972,4.454,-7.096,-2.179
1772935212746.387,-0.039,0.0348,-1.0021,4.673,-7.359,-2.188
1772935212746.387,-0.0379,0.0359,-1.0016,4.69,-7.306,-2.004
1772935212746.387,-0.0373,0.0371,-1.0002,4.594,-7.718,-2.065
1772935212746.387,-0.036,0.0393,-1.0013,4.944,-7.945,-2.091
1772935212746.387,-0.0364,0.0395,-1.0007,4.891,-8.242,-2.074
1772935212746.387,-0.0363,0.0388,-0.9979,4.944,-8.514,-2.118
1772935212762.0657,-0.0367,0.04,-0.999,4.961,-8.838,-2.188
1772935212762.0657,-0.0359,0.0432,-0.9945,4.918,-8.741,-2.319
1772935212762.0657,-0.0356,0.0404,-0.9945,4.865,-8.908,-2.406
1772935212762.0657,-0.0354,0.0389,-0.993,4.891,-9.476,-2.459
1772935212762.0657,-0.0337,0.0415,-0.9903,4.883,-9.643,-2.555
1772935212762.0657,-0.0335,0.0409,-0.9873,4.918,-9.459,-2.502
1772935212762.0657,-0.0325,0.0404,-0.985,4.891,-9.931,-2.546
1772935212762.0657,-0.0361,0.0387,-0.9805,4.751,-9.975,-2.73
1772935212762.0657,-0.0365,0.037,-0.9821,4.567,-9.905,-2.511
1772935212762.0657,-0.0357,0.034,-0.9831,4.366,-9.739,-2.441
1772935212762.0657,-0.0368,0.0332,-0.9779,4.279,-9.852,-2.546
1772935212762.0657,-0.0381,0.0317,-0.9761,4.305,-10.124,-2.459
1772935212762.0657,-0.0393,0.0296,-0.9721,4.156,-9.905,-2.476
1772935212778.0571,-0.04,0.0262,-0.9719,3.973,-9.844,-2.301
1772935212778.0571,-0.0414,0.0234,-0.9697,3.876,-9.52,-2.249
1772935212778.0571,-0.0411,0.022,-0.9653,3.78,-9.336,-1.96
1772935212778.0571,-0.0418,0.0184,-0.965,3.658,-9.24,-2.126
1772935212778.0571,-0.0414,0.0148,-0.964,3.439,-9.03,-1.855
1772935212778.0571,-0.0428,0.0145,-0.964,3.272,-8.873,-1.794
1772935212778.0571,-0.0434,0.0099,-0.9609,3.334,-8.461,-1.636
1772935212778.0571,-0.0431,0.0071,-0.9593,3.246,-8.207,-1.531
1772935212778.0571,-0.0428,0.0061,-0.9622,3.351,-7.893,-1.155
1772935212778.0571,-0.0414,0.0044,-0.9603,3.447,-7.569,-1.225
1772935212778.0571,-0.0422,0.0019,-0.9615,3.308,-7.219,-1.059
1772935212778.0571,-0.0387,0.0019,-0.9616,3.325,-6.904,-0.831
1772935212778.0571,-0.0373,0.0035,-0.9628,3.43,-6.37,-0.429
1772935212793.4143,-0.0368,0.0024,-0.9676,3.43,-6.099,-0.219
1772935212793.4143,-0.0352,0.0014,-0.969,3.64,-5.976,-0.035
1772935212793.4143,-0.0346,0.0035,-0.9732,3.964,-5.749,-0.035
1772935212793.4143,-0.0304,0.0057,-0.9764,4.008,-5.897,0.158
1772935212793.4143,-0.0315,0.0061,-0.9803,4.384,-5.661,-0.018
1772935212793.4143,-0.0291,0.0102,-0.9847,4.524,-5.688,0.315
1772935212793.4143,-0.0277,0.0101,-0.9919,4.979,-5.959,0.166
1772935212793.4143,-0.0256,0.0109,-0.9941,5.259,-6.213,0.411
1772935212793.4143,-0.0281,0.0131,-0.9944,5.364,-6.011,0.175
1772935212793.4143,-0.0254,0.0161,-0.9959,5.513,-6.256,0.201
1772935212793.4143,-0.0258,0.014,-0.9984,5.556,-6.484,0.333
1772935212793.4143,-0.0257,0.0138,-0.9978,5.784,-7.096,0.21
1772935212809.4766,-0.0272,0.0167,-0.9965,5.652,-7.341,-0.184
1772935212809.4766,-0.0305,0.0189,-0.9981,5.854,-7.639,-0.35
1772935212809.4766,-0.0295,0.0182,-0.9988,5.915,-7.893,-0.315
1772935212809.4766,-0.03,0.021,-0.9992,5.434,-8.321,-0.595
1772935212809.4766,-0.0311,0.0218,-0.9975,5.338,-8.759,-0.595
1772935212809.4766,-0.0318,0.0222,-0.9991,5.084,-9.056,-0.674
1772935212809.4766,-0.033,0.0246,-0.9966,4.909,-9.643,-0.875
1772935212809.4766,-0.0339,0.0255,-0.9972,4.629,-9.922,-1.015
1772935212809.4766,-0.0364,0.0257,-0.9975,4.48,-10.412,-1.085
1772935212809.4766,-0.0356,0.0283,-0.995,4.121,-10.623,-1.391
1772935212809.4766,-0.0375,0.0296,-0.9967,3.999,-10.92,-1.417
1772935212809.4766,-0.0366,0.0311,-0.9934,3.789,-11.235,-1.619
1772935212809.4766,-0.0414,0.0319,-0.9947,3.623,-11.655,-1.829
1772935212825.4473,-0.0411,0.0332,-0.9928,3.194,-11.533,-1.864
1772935212825.4473,-0.0429,0.0347,-0.9927,3.062,-11.821,-1.881
1772935212825.4473,-0.0431,0.0343,-0.9911,2.8,-12.25,-2.021
1772935212825.4473,-0.045,0.0345,-0.9896,2.739,-12.232,-2.24
1772935212825.4473,-0.0482,0.0357,-0.9858,2.975,-12.565,-2.249
1772935212825.4473,-0.0487,0.035,-0.9839,2.467,-12.67,-2.126
1772935212825.4473,-0.0513,0.0372,-0.983,2.59,-12.819,-2.24
1772935212825.4473,-0.0538,0.0333,-0.9798,2.441,-12.512,-2.249
1772935212825.4473,-0.052,0.035,-0.9776,2.406,-12.574,-2.266
1772935212825.4473,-0.052,0.0364,-0.9774,2.485,-12.206,-2.118
1772935212825.4473,-0.054,0.0362,-0.9776,2.669,-11.961,-2.205
1772935212825.4473,-0.053,0.0356,-0.9803,2.739,-12.162,-2.047
1772935212825.4473,-0.0527,0.0362,-0.9826,2.66,-11.918,-2.065
1772935212841.4949,-0.0515,0.0376,-0.9857,2.748,-11.821,-2.047
1772935212841.4949,-0.052,0.035,-0.9902,2.922,-11.629,-1.785
1772935212841.4949,-0.0508,0.0372,-0.9966,2.958,-11.646,-1.68
1772935212841.4949,-0.0487,0.035,-0.9983,2.975,-11.559,-1.549
1772935212841.4949,-0.0526,0.0375,-1.0082,2.914,-11.541,-1.444
1772935212841.4949,-0.0506,0.0377,-1.0124,2.853,-11.541,-1.488
1772935212841.4949,-0.0508,0.0375,-1.0167,2.59,-11.287,-1.365
1772935212841.4949,-0.0506,0.0346,-1.0226,2.389,-11.2,-1.173
1772935212841.4949,-0.0463,0.037,-1.0265,2.328,-11.611,-1.181
1772935212841.4949,-0.0493,0.0372,-1.0252,1.759,-11.541,-1.076
1772935212841.4949,-0.0517,0.0361,-1.0268,1.452,-11.148,-0.954
1772935212841.4949,-0.0533,0.0348,-1.0235,0.787,-11.13,-0.91
1772935212841.4949,-0.056,0.0376,-1.0238,0.061,-10.771,-0.796
1772935212857.251,-0.0572,0.0346,-1.0211,-0.499,-10.5,-0.998
1772935212857.251,-0.0606,0.0348,-1.0135,-1.584,-9.739,-0.875
1772935212857.251,-0.0647,0.0351,-1.0106,-2.546,-9.039,-0.516
1772935212857.251,-0.0647,0.0328,-1.0038,-3.71,-8.444,-0.787
1772935212857.251,-0.0715,0.0371,-0.9983,-4.655,-6.878,-0.516
1772935212857.251,-0.0729,0.0373,-0.9915,-5.88,-5.67,-0.639
1772935212857.251,-0.0748,0.0356,-0.9871,-6.912,-4.454,-0.831
1772935212857.251,-0.0748,0.037,-0.9859,-8.05,-2.502,-0.892
1772935212857.251,-0.0788,0.033,-0.9861,-8.969,-0.963,-0.954
1772935212857.251,-0.0759,0.0364,-0.9795,-9.861,0.744,-0.77
1772935212857.251,-0.0748,0.0363,-0.9791,-10.649,2.406,-0.718
1772935212857.251,-0.0737,0.0408,-0.9816,-11.357,3.981,-0.884
1772935212857.251,-0.0708,0.0427,-0.9809,-11.664,5.434,-0.744
1772935212872.3362,-0.071,0.0442,-0.9767,-11.795,7.07,-0.595
1772935212872.3362,-0.0676,0.048,-0.9744,-11.909,8.26,-0.814
1772935212872.3362,-0.0616,0.0504,-0.9716,-11.637,9.581,-0.858
1772935212872.3362,-0.0576,0.054,-0.9714,-11.165,10.71,-1.076
1772935212872.3362,-0.0572,0.0534,-0.9673,-10.377,11.113,-1.374
1772935212872.3362,-0.0531,0.0557,-0.9606,-9.196,11.716,-1.391
1772935212872.3362,-0.049,0.0559,-0.957,-8.207,11.935,-1.671
1772935212872.3362,-0.0467,0.0564,-0.9521,-7.009,12.066,-1.601
1772935212872.3362,-0.0432,0.0579,-0.9464,-5.889,11.97,-1.68
1772935212872.3362,-0.042,0.0579,-0.9391,-4.41,11.629,-1.864
1772935212872.3362,-0.0395,0.0562,-0.9304,-3.036,11.06,-1.864
1772935212872.3362,-0.0347,0.0558,-0.9312,-1.82,10.281,-1.907
1772935212887.8923,-0.0353,0.0506,-0.9243,-0.534,9.161,-1.986
1772935212887.8923,-0.0298,0.0514,-0.9213,0.875,8.181,-2.214
1772935212887.8923,-0.0329,0.0502,-0.9188,1.942,7.105,-2.266
1772935212887.8923,-0.0283,0.0476,-0.9137,2.712,5.749,-2.275
1772935212887.8923,-0.0292,0.0462,-0.9144,3.649,4.524,-2.144
1772935212887.8923,-0.0306,0.0417,-0.9121,4.532,3.019,-2.214
1772935212887.8923,-0.031,0.0401,-0.9111,5.058,1.811,-2.109
1772935212887.8923,-0.0306,0.0383,-0.911,5.827,0.341,-2.188
1772935212887.8923,-0.0312,0.0367,-0.9105,6.353,-1.146,-2.17
1772935212887.8923,-0.032,0.0343,-0.9128,6.729,-2.643,-2.013
1772935212887.8923,-0.0305,0.0345,-0.915,7.201,-3.981,-1.873
1772935212887.8923,-0.0317,0.0326,-0.9177,7.464,-5.162,-1.881
1772935212887.8923,-0.0323,0.0311,-0.9223,7.814,-6.519,-1.654
1772935212903.8972,-0.0352,0.0301,-0.9253,7.928,-7.849,-1.811
1772935212903.8972,-0.0351,0.03,-0.9283,7.866,-8.654,-1.855
1772935212903.8972,-0.0356,0.0262,-0.9312,8.172,-9.87,-1.663
1772935212903.8972,-0.0368,0.0265,-0.9346,8.05,-10.675,-1.575
1772935212903.8972,-0.037,0.0258,-0.9384,7.849,-11.41,-1.461
1772935212903.8972,-0.0379,0.0267,-0.9407,7.726,-12.04,-1.514
1772935212903.8972,-0.039,0.0254,-0.9459,7.796,-12.626,-1.768
1772935212903.8972,-0.0409,0.0248,-0.9483,7.367,-13.178,-1.689
1772935212903.8972,-0.0421,0.0231,-0.9539,7.131,-13.248,-1.636
1772935212903.8972,-0.0422,0.0216,-0.9578,6.921,-13.361,-1.566
1772935212903.8972,-0.0428,0.0218,-0.9575,6.562,-13.746,-1.671
1772935212903.8972,-0.0432,0.0211,-0.9607,6.239,-13.457,-1.741
1772935212903.8972,-0.043,0.0198,-0.9628,5.88,-12.994,-1.715
1772935212919.3728,-0.0454,0.0175,-0.9687,5.425,-12.609,-1.855
1772935212919.3728,-0.0467,0.0171,-0.9716,4.856,-12.189,-2.091
1772935212919.3728,-0.0457,0.0181,-0.9739,4.76,-11.489,-2.328
1772935212919.3728,-0.047,0.0178,-0.9789,4.322,-10.99,-2.266
1772935212919.3728,-0.047,0.0165,-0.9828,3.763,-10.377,-2.415
1772935212919.3728,-0.0467,0.0158,-0.9875,3.281,-9.852,-2.52
1772935212919.3728,-0.0483,0.019,-0.9925,2.94,-8.803,-2.266
1772935212919.3728,-0.0477,0.0187,-0.9959,2.389,-8.19,-2.196
1772935212919.3728,-0.0423,0.0176,-0.9965,1.873,-7.438,-2.152
1772935212919.3728,-0.0442,0.0191,-1.0004,1.383,-6.939,-2.144
1772935212919.3728,-0.0453,0.0215,-1.0031,1.041,-6.239,-2.1
1772935212919.3728,-0.0412,0.022,-1.0071,0.682,-5.539,-2.109
1772935212935.2417,-0.045,0.022,-1.0109,0.21,-4.961,-2.188
1772935212935.2417,-0.0415,0.0258,-1.0119,-0.07,-4.489,-2.362
1772935212935.2417,-0.0383,0.0256,-1.0144,-0.613,-3.938,-2.152
1772935212935.2417,-0.0388,0.0283,-1.0156,-0.963,-3.876,-2.205
1772935212935.2417,-0.0382,0.0284,-1.0132,-1.015,-3.386,-2.179
1772935212935.2417,-0.0376,0.0308,-1.0166,-1.321,-2.896,-2.319
1772935212935.2417,-0.0384,0.0309,-1.0152,-1.636,-2.888,-2.389
1772935212935.2417,-0.0351,0.035,-1.0156,-1.706,-2.853,-2.555
1772935212935.2417,-0.0364,0.0365,-1.0157,-1.942,-2.835,-2.66
1772935212935.2417,-0.0331,0.0368,-1.013,-2.109,-2.739,-2.678
1772935212935.2417,-0.0329,0.0382,-1.011,-2.021,-2.704,-2.922
1772935212935.2417,-0.0321,0.0398,-1.008,-2.021,-2.748,-3.106
1772935212935.2417,-0.0304,0.0415,-1.0032,-2.196,-2.844,-3.167
1772935212950.498,-0.0313,0.0403,-1.0042,-2.109,-2.905,-3.124
1772935212950.498,-0.0308,0.0391,-0.9997,-2.021,-3.045,-3.386
1772935212950.498,-0.0297,0.0415,-1.0007,-2.065,-3.246,-3.351
1772935212950.498,-0.0293,0.0429,-0.9939,-1.619,-3.342,-3.264
1772935212950.498,-0.0298,0.0425,-0.9916,-1.312,-3.631,-3.299
1772935212950.498,-0.0278,0.044,-0.9902,-1.024,-3.894,-3.386
1772935212950.498,-0.0274,0.0431,-0.989,-0.892,-4.13,-3.22
1772935212950.498,-0.0293,0.042,-0.9855,-0.534,-4.261,-3.351
1772935212950.498,-0.0265,0.0422,-0.982,-0.271,-4.664,-3.001
1772935212950.498,-0.0246,0.0448,-0.9797,0.087,-4.699,-3.203
1772935212950.498,-0.0249,0.0426,-0.9796,0.376,-4.944,-3.159
1772935212950.498,-0.0264,0.0454,-0.9775,0.901,-5.093,-3.106
1772935212950.498,-0.0243,0.0442,-0.9751,1.347,-5.285,-3.062
1772935212966.4404,-0.0257,0.0467,-0.9762,1.663,-5.486,-2.958
1772935212966.4404,-0.0265,0.0435,-0.9754,2.109,-6.02,-2.888
1772935212966.4404,-0.0253,0.044,-0.9725,2.319,-6.011,-2.835
1772935212966.4404,-0.0256,0.0454,-0.9726,2.555,-6.011,-2.958
1772935212966.4404,-0.0264,0.0459,-0.9709,2.896,-5.994,-2.511
1772935212966.4404,-0.0269,0.0443,-0.9717,3.29,-6.265,-2.406
1772935212966.4404,-0.0251,0.0448,-0.9729,3.482,-6.326,-2.345
1772935212966.4404,-0.0285,0.0439,-0.9701,3.815,-6.484,-2.345
1772935212966.4404,-0.0282,0.0432,-0.9703,4.06,-6.65,-2.266
1772935212966.4404,-0.0282,0.0422,-0.9694,4.357,-6.457,-2.476
1772935212966.4404,-0.0293,0.0415,-0.9712,4.664,-6.501,-2.328
1772935212966.4404,-0.0287,0.0418,-0.9689,4.725,-6.519,-2.039
1772935212966.4404,-0.0301,0.0401,-0.9693,4.664,-6.589,-2.118
1772935212981.611,-0.03,0.0381,-0.9694,4.952,-6.904,-2.004
1772935212981.611,-0.0291,0.0386,-0.9701,5.416,-7.044,-1.995
1772935212981.611,-0.0325,0.0365,-0.9683,5.189,-6.947,-1.986
1772935212981.611,-0.0351,0.035,-0.9697,5.232,-6.843,-1.706
1772935212981.611,-0.034,0.0354,-0.969,5.451,-6.921,-1.575
1772935212981.611,-0.0353,0.0339,-0.9682,5.591,-6.851,-1.488
1772935212981.611,-0.0338,0.03,-0.9676,5.635,-6.834,-1.286
1772935212981.611,-0.0362,0.0333,-0.9674,5.434,-6.729,-1.426
1772935212981.611,-0.0376,0.032,-0.9656,5.679,-6.816,-1.295
1772935212981.611,-0.0386,0.029,-0.9686,5.626,-6.633,-1.094
1772935212981.611,-0.0373,0.028,-0.9683,5.731,-6.457,-1.085
1772935212981.611,-0.039,0.0273,-0.9664,5.775,-6.335,-1.251
1772935212997.1426,-0.0376,0.0268,-0.9659,6.011,-6.405,-1.234
1772935212997.1426,-0.0412,0.0265,-0.9686,6.151,-6.029,-1.059
1772935212997.1426,-0.0406,0.0256,-0.9672,6.003,-6.064,-1.041
1772935212997.1426,-0.0414,0.0245,-0.9694,5.906,-5.915,-1.006
1772935212997.1426,-0.0405,0.0271,-0.9689,6.055,-5.801,-1.181
1772935212997.1426,-0.0447,0.0242,-0.9701,6.125,-5.688,-1.015
1772935212997.1426,-0.0428,0.0223,-0.9684,5.985,-5.609,-1.076
1772935212997.1426,-0.0431,0.022,-0.9695,5.941,-5.548,-1.137
1772935212997.1426,-0.0447,0.0199,-0.9715,6.204,-5.399,-1.103
1772935212997.1426,-0.0443,0.0198,-0.9694,6.055,-5.329,-1.129
1772935212997.1426,-0.0428,0.0201,-0.971,6.221,-5.442,-0.927
1772935212997.1426,-0.0422,0.0172,-0.9712,6.046,-5.495,-1.067
1772935212997.1426,-0.0439,0.018,-0.9712,6.02,-5.346,-1.383
1772935213012.9695,-0.0439,0.0176,-0.971,6.134,-5.049,-1.146
1772935213012.9695,-0.0431,0.0157,-0.9724,6.239,-5.04,-1.032
1772935213012.9695,-0.0444,0.0154,-0.9706,6.099,-4.76,-1.278
1772935213012.9695,-0.0424,0.0159,-0.9731,5.889,-4.638,-1.12
1772935213012.9695,-0.0434,0.0141,-0.9707,5.88,-4.795,-1.208
1772935213012.9695,-0.0458,0.0188,-0.9697,6.125,-4.83,-1.19
1772935213012.9695,-0.0432,0.0149,-0.972,5.933,-4.646,-1.05
1772935213012.9695,-0.0422,0.0158,-0.9733,5.617,-4.725,-1.155
1772935213012.9695,-0.0446,0.0168,-0.9719,5.67,-4.331,-1.347
1772935213012.9695,-0.0425,0.0191,-0.975,5.652,-4.454,-1.286
1772935213012.9695,-0.044,0.0167,-0.9768,5.661,-4.384,-1.488
1772935213012.9695,-0.0441,0.0165,-0.9741,5.504,-4.296,-1.391
1772935213027.7295,-0.0428,0.0209,-0.9759,5.39,-4.244,-1.295
1772935213027.7295,-0.0428,0.0187,-0.9752,5.556,-4.051,-1.33
1772935213027.7295,-0.0451,0.021,-0.9747,5.539,-3.841,-1.627
1772935213027.7295,-0.0426,0.0226,-0.9774,5.705,-4.034,-1.68
1772935213027.7295,-0.0417,0.0209,-0.9756,5.442,-4.139,-1.505
1772935213027.7295,-0.0429,0.0207,-0.98,5.268,-4.322,-1.724
1772935213027.7295,-0.0407,0.0217,-0.9788,5.268,-4.235,-1.759
1772935213027.7295,-0.0407,0.023,-0.979,5.206,-4.287,-1.82
1772935213027.7295,-0.0426,0.023,-0.9795,5.049,-4.384,-1.829
1772935213027.7295,-0.0437,0.0268,-0.9819,5.101,-4.034,-1.837
1772935213027.7295,-0.0414,0.0259,-0.9833,4.979,-4.112,-1.846
1772935213027.7295,-0.0423,0.0242,-0.9842,4.585,-4.218,-1.741
1772935213043.2703,-0.0432,0.0263,-0.9828,4.576,-4.48,-1.846
1772935213043.2703,-0.0411,0.0263,-0.9852,4.55,-4.366,-1.846
1772935213043.2703,-0.0401,0.0258,-0.9836,4.567,-4.384,-1.75
1772935213043.2703,-0.0421,0.0264,-0.9842,4.506,-4.585,-1.776
1772935213043.2703,-0.0405,0.0265,-0.985,4.419,-4.76,-1.732
1772935213043.2703,-0.0388,0.0267,-0.987,4.375,-4.926,-1.802
1772935213043.2703,-0.0419,0.0279,-0.985,4.41,-4.874,-1.75
1772935213043.2703,-0.0412,0.0285,-0.9851,4.322,-4.883,-1.855
1772935213043.2703,-0.0411,0.0278,-0.9847,4.287,-5.031,-1.96
1772935213043.2703,-0.0395,0.0241,-0.9863,4.287,-5.259,-1.82
1772935213043.2703,-0.0386,0.0276,-0.9872,4.314,-5.53,-1.785
1772935213043.2703,-0.039,0.0264,-0.9862,4.06,-5.425,-1.732
1772935213043.2703,-0.0411,0.0266,-0.9861,4.191,-5.425,-1.593
1772935213058.7925,-0.0402,0.0274,-0.9855,4.095,-5.495,-1.794
1772935213058.7925,-0.0393,0.0281,-0.9886,4.069,-5.889,-1.68
1772935213058.7925,-0.039,0.0271,-0.9873,3.902,-6.116,-1.934
1772935213058.7925,-0.0391,0.0281,-0.9884,4.095,-6.125,-2.24
1772935213058.7925,-0.0394,0.0261,-0.9864,4.077,-6.265,-1.785
1772935213058.7925,-0.0404,0.0248,-0.9856,4.043,-6.213,-1.837
1772935213058.7925,-0.0402,0.0263,-0.9829,3.999,-6.379,-1.794
1772935213058.7925,-0.0399,0.0266,-0.9841,3.99,-6.746,-1.864
1772935213058.7925,-0.042,0.0248,-0.9833,4.043,-6.554,-1.785
1772935213058.7925,-0.0417,0.026,-0.9822,3.938,-6.72,-1.986
1772935213058.7925,-0.0417,0.0255,-0.9812,4.156,-6.755,-1.89
1772935213058.7925,-0.0402,0.024,-0.9818,4.139,-6.904,-1.837
1772935213074.082,-0.0432,0.0251,-0.9772,4.104,-6.991,-1.916
1772935213074.082,-0.0422,0.0246,-0.9783,4.095,-7.122,-1.75
1772935213074.082,-0.0425,0.0256,-0.9777,3.981,-6.991,-1.645
1772935213074.082,-0.046,0.0252,-0.9788,3.824,-7.061,-1.514
1772935213074.082,-0.0425,0.0264,-0.9762,3.833,-7.061,-1.689
1772935213074.082,-0.0453,0.0254,-0.9767,3.868,-6.781,-1.654
1772935213074.082,-0.0462,0.0229,-0.9768,3.78,-6.808,-1.811
1772935213074.082,-0.0452,0.0209,-0.9753,4.077,-6.781,-1.794
1772935213074.082,-0.0464,0.0239,-0.975,4.253,-7.026,-1.916
1772935213074.082,-0.0475,0.0229,-0.976,4.191,-6.956,-1.942
1772935213074.082,-0.0472,0.0261,-0.9747,4.034,-6.79,-1.759
1772935213074.082,-0.0456,0.0213,-0.9767,4.13,-6.65,-1.671
1772935213074.082,-0.0443,0.0248,-0.9769,4.226,-6.475,-1.584
1772935213089.5747,-0.0446,0.0222,-0.9769,4.375,-6.711,-1.663
1772935213089.5747,-0.0452,0.0204,-0.976,4.428,-6.65,-1.846
1772935213089.5747,-0.0447,0.0218,-0.9794,4.235,-6.668,-1.61
1772935213089.5747,-0.045,0.0218,-0.9818,4.279,-6.571,-1.715
1772935213089.5747,-0.0447,0.0227,-0.9821,4.463,-6.668,-1.601
1772935213089.5747,-0.0463,0.0212,-0.9839,4.532,-6.449,-1.846
1772935213089.5747,-0.0434,0.0213,-0.9865,4.506,-6.423,-1.689
1772935213089.5747,-0.0431,0.0216,-0.9844,4.419,-6.562,-1.514
1772935213089.5747,-0.0443,0.0195,-0.9876,4.48,-6.58,-1.619
1772935213089.5747,-0.044,0.0194,-0.987,4.524,-6.685,-1.575
1772935213089.5747,-0.0412,0.0197,-0.989,4.322,-6.895,-1.409
1772935213089.5747,-0.0422,0.0204,-0.9908,4.506,-6.694,-1.636
1772935213105.077,-0.0428,0.0201,-0.9897,4.419,-6.912,-1.312
1772935213105.077,-0.0426,0.0199,-0.9919,4.226,-6.781,-1.593
1772935213105.077,-0.0428,0.0226,-0.9916,4.209,-6.571,-1.417
1772935213105.077,-0.0399,0.0184,-0.9927,4.191,-7.192,-1.452
1772935213105.077,-0.0412,0.0213,-0.9919,4.235,-6.965,-1.295
1772935213105.077,-0.0415,0.0222,-0.9922,4.226,-6.816,-1.234
1772935213105.077,-0.0422,0.0185,-0.9906,3.902,-6.939,-0.936
1772935213105.077,-0.0411,0.022,-0.9912,3.946,-6.895,-1.076
1772935213105.077,-0.0423,0.0201,-0.9924,3.789,-6.904,-1.085
1772935213105.077,-0.0402,0.0203,-0.9938,3.754,-7.044,-1.199
1772935213105.077,-0.0449,0.0199,-0.9896,3.553,-6.729,-1.26
1772935213105.077,-0.0425,0.0207,-0.9904,3.605,-6.799,-1.085
1772935213105.077,-0.0402,0.0221,-0.993,3.518,-6.659,-1.199
1772935213121.3145,-0.0429,0.0219,-0.995,3.474,-6.711,-1.015
1772935213121.3145,-0.0414,0.0254,-0.9911,3.272,-6.668,-1.129
1772935213121.3145,-0.0434,0.0239,-0.9887,3.299,-6.519,-1.006
1772935213121.3145,-0.0415,0.0244,-0.99,3.027,-6.204,-1.059
1772935213121.3145,-0.0432,0.0244,-0.9906,3.124,-6.195,-1.269
1772935213121.3145,-0.0436,0.026,-0.9872,3.334,-6.055,-1.304
1772935213121.3145,-0.0436,0.024,-0.9866,3.255,-6.23,-1.242
1772935213121.3145,-0.0431,0.0271,-0.9866,3.316,-6.081,-1.137
1772935213121.3145,-0.044,0.0241,-0.9845,3.089,-5.976,-1.225
1772935213121.3145,-0.0406,0.0242,-0.9864,3.413,-5.74,-1.199
1772935213121.3145,-0.0452,0.0248,-0.9839,3.124,-5.723,-1.304
1772935213121.3145,-0.0432,0.0274,-0.9865,3.176,-5.407,-1.339
1772935213121.3145,-0.0436,0.0271,-0.9827,3.272,-5.407,-1.278
1772935213136.5767,-0.044,0.0294,-0.9833,3.176,-5.565,-1.286
1772935213136.5767,-0.0445,0.0262,-0.9823,3.15,-5.346,-1.312
1772935213136.5767,-0.0453,0.0265,-0.9834,3.045,-5.372,-1.164
1772935213136.5767,-0.044,0.0277,-0.9833,3.36,-5.066,-1.164
1772935213136.5767,-0.044,0.0278,-0.9799,3.465,-4.961,-1.26
1772935213136.5767,-0.0449,0.0264,-0.9808,3.203,-4.996,-1.103
1772935213136.5767,-0.0432,0.0261,-0.9812,3.342,-5.303,-0.936
1772935213136.5767,-0.0452,0.0238,-0.9811,3.299,-5.407,-1.059
1772935213136.5767,-0.045,0.0265,-0.9814,3.404,-5.268,-1.05
1772935213136.5767,-0.0439,0.0273,-0.983,3.509,-5.154,-1.103
1772935213136.5767,-0.0437,0.0264,-0.9822,3.439,-5.093,-1.155
1772935213136.5767,-0.0437,0.0263,-0.9797,3.334,-5.355,-1.199
1772935213152.1367,-0.0431,0.0234,-0.9798,3.194,-5.548,-1.103
1772935213152.1367,-0.0432,0.026,-0.9827,3.482,-5.539,-1.269
1772935213152.1367,-0.0421,0.0249,-0.9838,3.57,-5.819,-1.295
1772935213152.1367,-0.0434,0.0245,-0.9844,3.833,-5.766,-1.111
1772935213152.1367,-0.0406,0.0239,-0.9851,3.885,-6.151,-1.304
1772935213152.1367,-0.0425,0.0268,-0.9842,3.841,-6.221,-1.111
1772935213152.1367,-0.0434,0.024,-0.9833,3.938,-6.291,-1.076
1772935213152.1367,-0.0431,0.0233,-0.9845,3.885,-6.361,-1.216
1772935213152.1367,-0.0429,0.0257,-0.9861,3.71,-6.659,-1.094
1772935213152.1367,-0.0418,0.0274,-0.985,3.981,-6.834,-1.181
1772935213152.1367,-0.0406,0.0241,-0.9847,3.868,-6.799,-1.242
1772935213152.1367,-0.0415,0.0259,-0.9861,3.763,-7.035,-1.059
1772935213152.1367,-0.0398,0.0253,-0.9854,3.85,-7.166,-1.032
1772935213167.943,-0.0412,0.0265,-0.9881,3.99,-7.656,-1.129
1772935213167.943,-0.0404,0.0275,-0.9856,4.077,-7.683,-1.225
1772935213167.943,-0.0396,0.0288,-0.9843,4.13,-7.691,-1.242
1772935213167.943,-0.0389,0.0279,-0.9874,4.112,-7.893,-1.076
1772935213167.943,-0.0393,0.0272,-0.9872,4.104,-8.164,-1.339
1772935213167.943,-0.04,0.028,-0.988,4.226,-7.91,-1.085
1772935213167.943,-0.0415,0.0284,-0.987,4.025,-8.05,-1.312
1772935213167.943,-0.04,0.0285,-0.9844,4.226,-8.339,-1.601
1772935213167.943,-0.0415,0.0292,-0.984,4.253,-8.514,-1.409
1772935213167.943,-0.04,0.0271,-0.9861,4.261,-8.216,-1.4
1772935213167.943,-0.0387,0.0294,-0.9858,4.209,-8.479,-1.269
1772935213167.943,-0.0405,0.0278,-0.9876,4.253,-8.566,-1.654
1772935213167.943,-0.0425,0.0278,-0.9884,4.2,-8.435,-1.715
1772935213183.2415,-0.0416,0.0265,-0.9859,4.209,-8.523,-1.566
1772935213183.2415,-0.0402,0.0279,-0.9855,4.043,-8.715,-1.759
1772935213183.2415,-0.0414,0.0293,-0.9867,4.086,-8.671,-1.575
1772935213183.2415,-0.0437,0.0265,-0.9851,3.92,-8.759,-1.479
1772935213183.2415,-0.0422,0.029,-0.9846,3.894,-8.566,-1.689
1772935213183.2415,-0.0421,0.0286,-0.9846,3.981,-8.619,-1.776
1772935213183.2415,-0.0419,0.0263,-0.9823,3.99,-8.75,-1.732
1772935213183.2415,-0.0419,0.027,-0.985,4.034,-8.47,-1.698
1772935213183.2415,-0.042,0.0273,-0.9833,3.973,-8.479,-1.715
1772935213183.2415,-0.0437,0.0263,-0.9832,3.885,-8.409,-1.636
1772935213183.2415,-0.045,0.0239,-0.9832,3.535,-8.19,-1.531
1772935213183.2415,-0.0425,0.0236,-0.9849,3.692,-8.225,-1.837
1772935213199.9758,-0.042,0.0238,-0.982,3.797,-8.383,-1.619
1772935213199.9758,-0.0439,0.0249,-0.9825,3.701,-8.356,-1.89
1772935213199.9758,-0.0431,0.0268,-0.9825,3.605,-8.207,-1.881
1772935213199.9758,-0.0425,0.0252,-0.9806,3.684,-8.207,-1.916
1772935213199.9758,-0.0399,0.0254,-0.9802,3.745,-7.928,-1.558
1772935213199.9758,-0.0424,0.0254,-0.977,3.596,-7.91,-1.558
1772935213199.9758,-0.0431,0.0268,-0.9812,3.447,-7.971,-1.724
1772935213199.9758,-0.0427,0.0246,-0.9814,3.351,-7.919,-1.645
1772935213199.9758,-0.0429,0.0272,-0.9785,3.631,-7.989,-1.715
1772935213199.9758,-0.0438,0.0283,-0.9806,3.771,-7.866,-1.593
1772935213199.9758,-0.0423,0.0276,-0.9801,3.544,-7.779,-1.75
1772935213199.9758,-0.0426,0.0291,-0.9808,3.447,-7.604,-1.671
1772935213199.9758,-0.0416,0.0278,-0.977,3.553,-7.621,-1.584
1772935213199.9758,-0.0426,0.0293,-0.9825,3.701,-7.438,-1.873
1772935213215.1016,-0.0417,0.0305,-0.9796,3.78,-7.551,-1.925
1772935213215.1016,-0.0414,0.0316,-0.9817,3.806,-7.455,-1.794
1772935213215.1016,-0.0404,0.0317,-0.9781,3.614,-7.367,-1.627
1772935213215.1016,-0.0395,0.0317,-0.9792,3.579,-7.569,-1.811
1772935213215.1016,-0.0403,0.0328,-0.9748,3.745,-7.534,-1.645
1772935213215.1016,-0.0378,0.0317,-0.9795,3.719,-7.429,-1.82
1772935213215.1016,-0.0384,0.0346,-0.98,3.78,-7.28,-1.802
1772935213215.1016,-0.0395,0.0336,-0.9773,3.797,-7.263,-1.82
1772935213215.1016,-0.0401,0.0371,-0.9811,3.955,-7.359,-1.942
1772935213215.1016,-0.04,0.0356,-0.9796,3.859,-7.376,-1.942
1772935213215.1016,-0.0395,0.0336,-0.978,3.938,-7.28,-2.144
1772935213215.1016,-0.0378,0.0351,-0.9767,3.78,-7.131,-2.039
1772935213230.6501,-0.0401,0.0362,-0.9806,3.885,-7.21,-1.566
1772935213230.6501,-0.0386,0.0377,-0.9809,3.797,-7.061,-1.855
1772935213230.6501,-0.0391,0.0364,-0.9784,3.929,-7.254,-2.109
1772935213230.6501,-0.0403,0.0379,-0.9787,3.736,-6.86,-2.118
1772935213230.6501,-0.0381,0.0393,-0.979,3.894,-7.157,-2.039
1772935213230.6501,-0.0403,0.0378,-0.9795,3.806,-7.184,-2.205
1772935213230.6501,-0.0379,0.0396,-0.9801,3.763,-7.499,-2.065
1772935213230.6501,-0.0391,0.0384,-0.9761,3.894,-7.569,-1.986
1772935213230.6501,-0.0404,0.0378,-0.9775,3.955,-7.464,-2.083
1772935213230.6501,-0.0399,0.0372,-0.9765,3.815,-7.455,-1.969
1772935213230.6501,-0.0391,0.039,-0.9778,4.069,-7.394,-1.916
1772935213230.6501,-0.0412,0.0384,-0.9773,3.745,-7.446,-1.837
1772935213230.6501,-0.043,0.0374,-0.9753,3.841,-7.324,-1.794
1772935213246.4194,-0.0392,0.0377,-0.9748,3.938,-7.228,-1.82
1772935213246.4194,-0.0419,0.0356,-0.9769,4.025,-7.341,-1.663
1772935213246.4194,-0.0422,0.0361,-0.9751,4.069,-7.332,-1.584
1772935213246.4194,-0.043,0.0376,-0.975,3.894,-7.192,-1.794
1772935213246.4194,-0.0429,0.0356,-0.9741,3.894,-7.332,-1.759
1772935213246.4194,-0.0412,0.0355,-0.9745,3.894,-7.376,-1.663
1772935213246.4194,-0.0423,0.0332,-0.9754,3.675,-7.166,-1.514
1772935213246.4194,-0.0431,0.0342,-0.9733,3.894,-7.175,-1.619
1772935213246.4194,-0.0415,0.0333,-0.9733,3.938,-6.86,-1.584
1772935213246.4194,-0.0417,0.0322,-0.9732,3.964,-6.711,-1.461
1772935213246.4194,-0.0413,0.0337,-0.9744,3.833,-6.571,-1.566
1772935213246.4194,-0.0423,0.0343,-0.972,4.121,-6.843,-1.409
1772935213261.895,-0.0431,0.0315,-0.972,4.043,-6.912,-1.488
1772935213261.895,-0.0421,0.0304,-0.9723,4.121,-6.685,-1.312
1772935213261.895,-0.0436,0.0296,-0.974,4.043,-6.431,-1.164
1772935213261.895,-0.0422,0.0292,-0.9711,4.121,-6.335,-1.146
1772935213261.895,-0.0444,0.0287,-0.9738,4.244,-6.51,-1.146
1772935213261.895,-0.0429,0.0262,-0.9737,4.41,-6.37,-1.234
1772935213261.895,-0.0418,0.0284,-0.9769,4.401,-6.256,-1.278
1772935213261.895,-0.0458,0.0271,-0.9763,4.428,-6.317,-0.98
1772935213261.895,-0.0433,0.0256,-0.9739,4.445,-6.213,-1.181
1772935213261.895,-0.0443,0.0238,-0.9748,4.34,-5.854,-1.129
1772935213261.895,-0.0451,0.0268,-0.9747,4.445,-5.845,-1.111
1772935213261.895,-0.0434,0.0251,-0.9764,4.419,-5.985,-1.181
1772935213261.895,-0.0443,0.0256,-0.9787,4.541,-6.247,-0.954
1772935213277.5037,-0.0445,0.0261,-0.9765,4.646,-6.116,-1.137
1772935213277.5037,-0.0415,0.0225,-0.977,4.725,-5.968,-1.059
1772935213277.5037,-0.0446,0.0246,-0.9799,4.734,-6.046,-1.111
1772935213277.5037,-0.0438,0.0243,-0.9808,4.699,-5.775,-1.103
1772935213277.5037,-0.042,0.0245,-0.9816,4.497,-5.854,-0.98
1772935213277.5037,-0.0434,0.0267,-0.9801,4.611,-6.064,-1.067
1772935213277.5037,-0.0425,0.0243,-0.9844,4.707,-6.3,-1.216
1772935213277.5037,-0.0432,0.0245,-0.9843,4.891,-6.291,-1.365
1772935213277.5037,-0.0383,0.0228,-0.9852,4.681,-5.976,-1.321
1772935213277.5037,-0.0422,0.0223,-0.9843,4.664,-6.361,-1.173
1772935213277.5037,-0.0442,0.0231,-0.9853,4.786,-6.344,-1.137
1772935213277.5037,-0.045,0.0232,-0.9858,4.786,-6.44,-1.19
1772935213277.5037,-0.0456,0.0226,-0.9848,4.681,-6.396,-1.137
1772935213293.006,-0.0447,0.0215,-0.9834,4.716,-6.554,-1.05
1772935213293.006,-0.0435,0.021,-0.9865,4.777,-6.624,-1.26
1772935213293.006,-0.0413,0.0215,-0.9868,4.673,-6.808,-1.461
1772935213293.006,-0.0436,0.021,-0.9871,4.559,-6.737,-1.33
1772935213293.006,-0.0458,0.0198,-0.9902,4.139,-6.834,-1.365
1772935213293.006,-0.0451,0.019,-0.9884,4.147,-6.825,-1.173
1772935213293.006,-0.0457,0.0173,-0.9889,4.322,-6.982,-1.339
1772935213293.006,-0.0443,0.0198,-0.9902,4.235,-6.947,-1.391
1772935213293.006,-0.0441,0.0192,-0.9888,4.069,-7.096,-1.452
1772935213293.006,-0.045,0.0192,-0.9867,3.973,-7.149,-1.601
1772935213293.006,-0.0472,0.0178,-0.9889,3.894,-7.332,-1.636
1772935213293.006,-0.0444,0.0174,-0.9854,3.955,-7.604,-1.593
1772935213308.2358,-0.0465,0.0183,-0.9875,3.859,-7.621,-1.558
1772935213308.2358,-0.0463,0.0154,-0.9884,4.06,-7.656,-1.636
1772935213308.2358,-0.0451,0.0157,-0.9848,3.692,-7.525,-1.435
1772935213308.2358,-0.0447,0.0156,-0.9864,3.518,-7.586,-1.365
1772935213308.2358,-0.0465,0.016,-0.9861,3.754,-7.595,-1.304
1772935213308.2358,-0.046,0.0152,-0.9863,3.587,-7.56,-1.339
1772935213308.2358,-0.0473,0.0139,-0.9848,3.561,-7.63,-1.374
1772935213308.2358,-0.0479,0.0147,-0.9859,3.526,-7.7,-1.365
1772935213308.2358,-0.0467,0.0156,-0.9871,3.491,-7.674,-1.391
1772935213308.2358,-0.0463,0.0136,-0.9864,3.474,-7.7,-1.514
1772935213308.2358,-0.047,0.0138,-0.9833,3.316,-7.875,-1.452
1772935213308.2358,-0.0466,0.0159,-0.9841,3.141,-7.997,-1.627
1772935213308.2358,-0.049,0.0154,-0.9854,3.316,-8.015,-1.61
1772935213324.183,-0.0482,0.0168,-0.9851,3.395,-7.884,-1.435
1772935213324.183,-0.0467,0.0162,-0.9859,3.22,-7.884,-1.531
1772935213324.183,-0.0496,0.0165,-0.9867,3.229,-7.735,-1.724
1772935213324.183,-0.0468,0.0168,-0.9849,3.272,-7.639,-1.663
1772935213324.183,-0.0473,0.0174,-0.986,3.272,-7.866,-1.488
1772935213324.183,-0.0483,0.017,-0.9832,3.246,-8.085,-1.531
1772935213324.183,-0.0483,0.0164,-0.9823,3.194,-7.805,-1.531
1772935213324.183,-0.0497,0.0178,-0.983,3.098,-7.919,-1.479
1772935213324.183,-0.0486,0.0168,-0.9825,3.237,-7.954,-1.496
1772935213324.183,-0.0465,0.0185,-0.9825,3.237,-7.805,-1.601
1772935213324.183,-0.0479,0.0187,-0.9849,3.019,-7.84,-1.61
1772935213324.183,-0.0493,0.0181,-0.9836,3.176,-8.006,-1.558
1772935213324.183,-0.0467,0.0212,-0.9837,3.211,-7.954,-1.496
1772935213339.3523,-0.0497,0.0182,-0.9832,3.316,-7.831,-1.645
1772935213339.3523,-0.048,0.0209,-0.9853,3.229,-7.744,-1.925
1772935213339.3523,-0.0479,0.0199,-0.9839,3.115,-7.822,-1.75
1772935213339.3523,-0.0465,0.0201,-0.9799,3.176,-8.129,-1.785
1772935213339.3523,-0.0467,0.0198,-0.9815,3.141,-7.805,-1.698
1772935213339.3523,-0.0476,0.0204,-0.9825,3.045,-7.963,-1.584
1772935213339.3523,-0.0476,0.0206,-0.9811,2.984,-7.674,-1.794
1772935213339.3523,-0.0486,0.0213,-0.983,2.966,-7.525,-1.776
1772935213339.3523,-0.049,0.0206,-0.9798,3.001,-7.656,-1.636
1772935213339.3523,-0.0486,0.0227,-0.9802,3.071,-7.744,-1.584
1772935213339.3523,-0.0478,0.0207,-0.979,3.019,-7.402,-1.584
1772935213339.3523,-0.0476,0.0225,-0.9765,2.931,-7.586,-1.654
1772935213354.5962,-0.0478,0.0209,-0.9771,2.835,-7.551,-1.794
1772935213354.5962,-0.0497,0.0217,-0.9777,2.949,-7.499,-1.619
1772935213354.5962,-0.047,0.0226,-0.9754,2.931,-7.543,-1.645
1772935213354.5962,-0.0479,0.0206,-0.9749,2.704,-7.665,-1.671
1772935213354.5962,-0.0483,0.0205,-0.9744,2.651,-7.28,-1.671
1772935213354.5962,-0.0491,0.0198,-0.9727,2.328,-7.184,-1.522
1772935213354.5962,-0.0492,0.0201,-0.9737,2.362,-7.402,-1.715
1772935213354.5962,-0.0504,0.0187,-0.9723,2.257,-7.175,-1.671
1772935213354.5962,-0.0504,0.0194,-0.9704,1.776,-7.009,-1.663
1772935213354.5962,-0.0515,0.0184,-0.9724,1.724,-6.772,-1.479
1772935213354.5962,-0.0526,0.0178,-0.9699,1.732,-6.816,-1.663
1772935213354.5962,-0.0524,0.018,-0.9707,1.636,-6.825,-1.575
1772935213370.128,-0.0494,0.0189,-0.9726,1.426,-6.501,-1.566
1772935213370.128,-0.051,0.0207,-0.9736,1.26,-6.431,-1.452
1772935213370.128,-0.0515,0.0192,-0.9764,1.409,-6.204,-1.488
1772935213370.128,-0.0518,0.0201,-0.9745,1.085,-6.247,-1.278
1772935213370.128,-0.0491,0.0204,-0.9789,0.831,-6.317,-1.286
1772935213370.128,-0.0491,0.0223,-0.9794,0.796,-6.143,-1.295
1772935213370.128,-0.0499,0.0235,-0.9792,0.613,-6.431,-1.278
1772935213370.128,-0.0512,0.0253,-0.9831,0.525,-6.344,-1.094
1772935213370.128,-0.0494,0.0246,-0.9813,0.674,-6.265,-1.47
1772935213370.128,-0.0499,0.0256,-0.9832,0.718,-6.143,-1.522
1772935213370.128,-0.0495,0.0276,-0.9844,0.569,-6.388,-1.409
1772935213370.128,-0.0509,0.0272,-0.9866,0.613,-6.624,-1.54
1772935213370.128,-0.0503,0.029,-0.9859,0.709,-6.825,-1.321
1772935213385.9148,-0.0494,0.0289,-0.9848,0.919,-6.519,-1.391
1772935213385.9148,-0.05,0.0298,-0.9854,1.085,-6.659,-1.417
1772935213385.9148,-0.0488,0.0261,-0.9831,1.435,-6.834,-1.698
1772935213385.9148,-0.0499,0.0308,-0.9832,1.208,-7.035,-1.768
1772935213385.9148,-0.0492,0.0296,-0.9836,1.479,-6.746,-1.496
1772935213385.9148,-0.0498,0.0292,-0.9797,1.409,-6.825,-1.654
1772935213385.9148,-0.0501,0.029,-0.9802,1.759,-7.14,-1.435
1772935213385.9148,-0.0481,0.03,-0.979,2.144,-7.263,-1.566
1772935213385.9148,-0.0456,0.0289,-0.9776,2.319,-7.534,-1.374
1772935213385.9148,-0.0483,0.0283,-0.9756,2.301,-7.096,-1.505
1772935213385.9148,-0.0511,0.028,-0.9736,2.328,-7.122,-1.417
1772935213385.9148,-0.0528,0.0256,-0.9739,2.52,-6.781,-1.304
1772935213401.654,-0.0508,0.0278,-0.9747,2.678,-7.026,-1.444
1772935213401.654,-0.0493,0.0274,-0.9758,2.826,-6.633,-1.461
1772935213401.654,-0.0507,0.0273,-0.9739,3.019,-6.659,-1.514
1772935213401.654,-0.0496,0.0253,-0.9743,2.984,-6.729,-1.251
1772935213401.654,-0.0475,0.0265,-0.9731,2.905,-6.895,-1.488
1772935213401.654,-0.0486,0.0253,-0.9762,3.124,-6.895,-1.374
1772935213401.654,-0.05,0.0259,-0.9743,3.325,-6.895,-1.269
1772935213401.654,-0.0485,0.0256,-0.9744,3.185,-6.405,-1.444
1772935213401.654,-0.0501,0.0239,-0.977,3.132,-6.606,-1.496
1772935213401.654,-0.0483,0.0251,-0.9758,3.15,-6.676,-1.426
1772935213401.654,-0.0467,0.0243,-0.979,3.071,-6.405,-1.356
1772935213401.654,-0.0503,0.0251,-0.9799,3.159,-6.519,-1.199
1772935213401.654,-0.0498,0.0239,-0.9819,3.299,-6.379,-1.199
1772935213417.239,-0.0476,0.0228,-0.9801,3.115,-6.562,-1.426
1772935213417.239,-0.0489,0.0234,-0.9836,3.22,-6.449,-1.234
1772935213417.239,-0.05,0.023,-0.9781,3.246,-6.475,-1.208
1772935213417.239,-0.049,0.0223,-0.9818,3.395,-6.449,-0.989
1772935213417.239,-0.0477,0.0223,-0.9809,3.334,-6.545,-0.998
1772935213417.239,-0.0483,0.0251,-0.9836,3.15,-6.519,-1.015
1772935213417.239,-0.0474,0.025,-0.9836,3.351,-6.641,-0.814
1772935213417.239,-0.0493,0.0243,-0.9828,3.22,-6.668,-0.945
1772935213417.239,-0.0492,0.0249,-0.9813,3.036,-6.492,-1.085
1772935213417.239,-0.0491,0.0239,-0.9801,3.141,-6.685,-0.884
1772935213417.239,-0.0492,0.0234,-0.9832,3.237,-6.755,-1.015
1772935213417.239,-0.0512,0.0248,-0.9825,2.993,-6.457,-0.919
1772935213417.239,-0.0487,0.0258,-0.9827,3.054,-6.633,-0.814
1772935213433.298,-0.0498,0.0249,-0.9812,3.036,-6.711,-0.954
1772935213433.298,-0.049,0.0257,-0.9833,2.905,-6.746,-0.901
1772935213433.298,-0.0498,0.0258,-0.9825,3.071,-6.737,-0.998
1772935213433.298,-0.0515,0.0258,-0.9825,3.089,-6.764,-1.059
1772935213433.298,-0.0517,0.026,-0.9836,3.08,-6.51,-0.884
1772935213433.298,-0.0498,0.0273,-0.9812,3.098,-6.668,-1.032
1772935213433.298,-0.05,0.0254,-0.981,2.931,-6.834,-1.164
1772935213433.298,-0.0477,0.0267,-0.9826,2.984,-6.912,-1.032
1772935213433.298,-0.0486,0.0272,-0.9803,2.966,-6.825,-1.164
1772935213433.298,-0.048,0.0271,-0.9834,3.098,-7.035,-1.269
1772935213433.298,-0.0497,0.0279,-0.9837,2.993,-7.105,-1.312
1772935213433.298,-0.0461,0.026,-0.9819,3.08,-7.367,-1.19
1772935213433.298,-0.0489,0.0265,-0.9823,3.071,-7.201,-1.155
1772935213448.8496,-0.048,0.0284,-0.983,3.176,-7.157,-1.356
1772935213448.8496,-0.0483,0.027,-0.9836,3.132,-7.114,-1.225
1772935213448.8496,-0.0496,0.0264,-0.9824,3.115,-7.341,-1.356
1772935213448.8496,-0.049,0.026,-0.9839,3.272,-7.534,-1.199
1772935213448.8496,-0.0495,0.0285,-0.9839,3.141,-7.42,-1.173
1772935213448.8496,-0.049,0.0264,-0.9829,3.15,-7.411,-1.181
1772935213448.8496,-0.0506,0.0281,-0.9859,3.194,-7.446,-1.137
1772935213448.8496,-0.05,0.0268,-0.9826,3.203,-7.438,-1.391
1772935213448.8496,-0.0504,0.0256,-0.9841,3.036,-7.543,-1.409
1772935213448.8496,-0.0505,0.0265,-0.9838,3.325,-7.621,-1.522
1772935213448.8496,-0.0505,0.0281,-0.9842,3.167,-7.831,-1.374
1772935213448.8496,-0.0501,0.026,-0.9847,3.229,-7.779,-1.365
1772935213448.8496,-0.0504,0.0254,-0.9826,3.141,-7.91,-1.479
1772935213463.9822,-0.0522,0.0239,-0.9836,3.386,-7.647,-1.584
1772935213463.9822,-0.051,0.0253,-0.9825,3.229,-7.718,-1.68
1772935213463.9822,-0.0492,0.024,-0.9796,3.281,-8.068,-1.715
1772935213463.9822,-0.0509,0.0249,-0.9825,3.098,-7.779,-1.452
1772935213463.9822,-0.0495,0.0234,-0.9804,3.141,-7.849,-1.304
1772935213463.9822,-0.0512,0.024,-0.9825,3.045,-7.954,-1.269
1772935213463.9822,-0.0492,0.0223,-0.9841,3.062,-8.085,-1.251
1772935213463.9822,-0.0489,0.0221,-0.9835,3.167,-7.98,-1.19
1772935213463.9822,-0.0467,0.0247,-0.9802,3.124,-7.997,-1.461
1772935213463.9822,-0.0495,0.0218,-0.9806,3.045,-8.094,-1.549
1772935213463.9822,-0.0482,0.0215,-0.9803,3.045,-7.971,-1.426
1772935213463.9822,-0.0505,0.0216,-0.978,3.194,-8.006,-1.05
1772935213479.2463,-0.0498,0.0198,-0.98,3.124,-8.199,-1.199
1772935213479.2463,-0.0505,0.0212,-0.9768,3.115,-8.085,-1.452
1772935213479.2463,-0.0493,0.0215,-0.978,3.159,-7.936,-1.347
1772935213479.2463,-0.0519,0.0218,-0.9792,3.106,-7.805,-1.26
1772935213479.2463,-0.0499,0.0209,-0.9783,3.124,-7.857,-1.321
1772935213479.2463,-0.048,0.0212,-0.9764,3.176,-7.866,-1.627
1772935213479.2463,-0.0504,0.0172,-0.9742,2.922,-7.805,-1.505
1772935213479.2463,-0.0518,0.0196,-0.9764,2.922,-7.971,-1.137
1772935213479.2463,-0.0526,0.0195,-0.9765,3.027,-7.735,-1.26
1772935213479.2463,-0.0507,0.0178,-0.975,3.089,-7.639,-1.514
1772935213479.2463,-0.051,0.0187,-0.9742,3.019,-7.289,-1.208
1772935213479.2463,-0.0507,0.0166,-0.9754,3.027,-7.612,-1.199
1772935213495.3296,-0.0477,0.0191,-0.9736,2.844,-7.324,-1.199
1772935213495.3296,-0.0514,0.0188,-0.974,2.94,-7.306,-1.33
1772935213495.3296,-0.0516,0.0165,-0.9717,2.546,-7.332,-1.278
1772935213495.3296,-0.0544,0.0173,-0.9754,2.59,-7.516,-1.286
1772935213495.3296,-0.051,0.0181,-0.9724,2.817,-7.35,-1.26
1772935213495.3296,-0.0522,0.0184,-0.9722,2.966,-7.079,-1.242
1772935213495.3296,-0.0524,0.0187,-0.9722,2.905,-6.72,-1.208
1772935213495.3296,-0.0514,0.0185,-0.972,2.572,-6.843,-1.452
1772935213495.3296,-0.0524,0.0219,-0.9728,2.643,-6.694,-1.347
1772935213495.3296,-0.0513,0.0199,-0.9749,2.607,-6.606,-1.103
1772935213495.3296,-0.0517,0.0221,-0.9731,2.704,-6.72,-1.208
1772935213495.3296,-0.0519,0.0239,-0.9727,2.599,-6.466,-1.365
1772935213495.3296,-0.0515,0.0241,-0.9708,2.59,-6.256,-1.356
1772935213510.7366,-0.0539,0.0239,-0.9728,2.669,-6.178,-1.33
1772935213510.7366,-0.0515,0.0248,-0.9758,2.651,-6.239,-1.383
1772935213510.7366,-0.0542,0.0246,-0.9751,2.879,-6.116,-1.627
1772935213510.7366,-0.0523,0.026,-0.9743,2.774,-6.16,-1.488
1772935213510.7366,-0.0542,0.0268,-0.9723,2.704,-5.801,-1.496
1772935213510.7366,-0.0517,0.0276,-0.9763,2.931,-6.107,-1.627
1772935213510.7366,-0.0552,0.0271,-0.9775,2.817,-6.02,-1.444
1772935213510.7366,-0.0559,0.0269,-0.9778,2.905,-5.915,-1.759
1772935213510.7366,-0.0563,0.0288,-0.9793,3.089,-5.793,-1.715
1772935213510.7366,-0.0556,0.0292,-0.982,3.141,-5.845,-1.593
1772935213510.7366,-0.0537,0.0308,-0.9835,3.106,-5.906,-1.68
1772935213510.7366,-0.0518,0.0297,-0.9826,3.141,-5.862,-1.916
1772935213510.7366,-0.0514,0.03,-0.9865,3.141,-5.95,-1.846
1772935213526.2969,-0.0534,0.0329,-0.9881,3.342,-6.003,-1.698
1772935213526.2969,-0.0503,0.0316,-0.9911,3.281,-6.213,-1.881
1772935213526.2969,-0.053,0.0332,-0.9943,3.386,-6.44,-1.785
1772935213526.2969,-0.0531,0.032,-0.997,3.579,-6.431,-1.969
1772935213526.2969,-0.0529,0.0339,-0.9967,3.649,-6.379,-2.065
1772935213526.2969,-0.0511,0.0361,-0.9992,3.728,-6.79,-1.934
1772935213526.2969,-0.0506,0.0369,-0.9983,3.745,-7.166,-1.942
1772935213526.2969,-0.0492,0.035,-1.0025,4.121,-7.228,-2.021
1772935213526.2969,-0.0511,0.036,-0.9999,4.016,-7.446,-2.1
1772935213526.2969,-0.0512,0.0362,-1.0006,4.253,-7.612,-2.319
1772935213526.2969,-0.0487,0.0387,-1.0024,4.41,-8.041,-2.196
1772935213526.2969,-0.0489,0.0386,-1.0024,4.235,-8.365,-2.152
1772935213526.2969,-0.0468,0.04,-1.0017,4.209,-8.619,-2.397
1772935213542.1997,-0.0489,0.0393,-1.0024,4.174,-8.943,-2.643
1772935213542.1997,-0.0468,0.0371,-0.9994,4.393,-9.363,-2.52
1772935213542.1997,-0.0456,0.0387,-1.0011,4.366,-9.494,-2.607
1772935213542.1997,-0.0462,0.039,-0.9981,4.401,-9.774,-2.678
1772935213542.1997,-0.0478,0.0382,-0.9976,4.471,-10.168,-2.721
1772935213542.1997,-0.0481,0.0375,-0.9967,4.357,-10.159,-2.774
1772935213542.1997,-0.047,0.037,-0.9949,4.218,-10.342,-2.678
1772935213542.1997,-0.0499,0.0357,-0.991,4.287,-10.229,-2.704
1772935213542.1997,-0.0461,0.0339,-0.9917,4.104,-10.5,-2.721
1772935213542.1997,-0.0476,0.032,-0.9875,4.025,-10.482,-2.888
1772935213542.1997,-0.0514,0.0308,-0.9841,3.728,-10.509,-2.774
1772935213542.1997,-0.0531,0.029,-0.9828,3.614,-10.36,-2.748
1772935213557.1777,-0.0531,0.0242,-0.9806,3.666,-10.36,-2.774
1772935213557.1777,-0.0516,0.0234,-0.9773,3.404,-10.238,-2.783
1772935213557.1777,-0.0525,0.0213,-0.9756,2.984,-10.439,-2.538
1772935213557.1777,-0.0546,0.0195,-0.9728,2.931,-10.176,-2.362
1772935213557.1777,-0.0545,0.0187,-0.9717,2.607,-9.984,-2.38
1772935213557.1777,-0.0537,0.0163,-0.969,2.572,-9.818,-2.389
1772935213557.1777,-0.0548,0.0143,-0.9674,2.24,-9.389,-2.275
1772935213557.1777,-0.0532,0.012,-0.9645,2.118,-8.881,-2.074
1772935213557.1777,-0.0564,0.0085,-0.964,2.161,-8.864,-1.899
1772935213557.1777,-0.0585,0.0099,-0.968,1.951,-8.531,-1.846
1772935213557.1777,-0.0565,0.0076,-0.9651,1.741,-8.251,-1.776
1772935213557.1777,-0.055,0.0058,-0.9649,1.855,-7.543,-1.61
1772935213573.2573,-0.0534,0.0076,-0.9665,2.091,-7.683,-1.435
1772935213573.2573,-0.053,0.0068,-0.9685,2.013,-7.7,-1.391
1772935213573.2573,-0.0511,0.0091,-0.9665,2.161,-7.122,-1.391
1772935213573.2573,-0.049,0.0088,-0.9683,2.275,-6.86,-0.892
1772935213573.2573,-0.0502,0.011,-0.9738,2.712,-6.668,-0.735
1772935213573.2573,-0.0493,0.0137,-0.9728,2.975,-6.764,-0.849
1772935213573.2573,-0.0469,0.0156,-0.9776,3.395,-6.501,-0.884
1772935213573.2573,-0.047,0.0151,-0.9789,3.658,-6.3,-0.639
1772935213573.2573,-0.044,0.019,-0.9817,3.981,-6.423,-0.831
1772935213573.2573,-0.0437,0.0196,-0.9858,4.191,-6.379,-0.63
1772935213573.2573,-0.0434,0.0199,-0.9847,4.515,-6.545,-0.779
1772935213573.2573,-0.0437,0.0206,-0.9894,4.673,-6.44,-0.875
1772935213573.2573,-0.0439,0.0247,-0.9875,4.996,-6.65,-0.735
1772935213588.8723,-0.0428,0.0245,-0.9892,5.162,-6.956,-0.84
1772935213588.8723,-0.0418,0.0268,-0.9899,5.259,-7.053,-0.998
1772935213588.8723,-0.0435,0.0264,-0.9928,5.372,-7.525,-1.234
1772935213588.8723,-0.0463,0.0276,-0.9928,5.372,-7.647,-1.146
1772935213588.8723,-0.0483,0.0266,-0.9908,5.171,-7.884,-1.155
1772935213588.8723,-0.0467,0.0287,-0.9915,5.066,-8.453,-1.383
1772935213588.8723,-0.0479,0.0283,-0.9932,5.101,-8.444,-1.522
1772935213588.8723,-0.0479,0.0308,-0.992,4.952,-8.741,-1.724
1772935213588.8723,-0.0514,0.0326,-0.9925,4.655,-8.916,-2.065
1772935213588.8723,-0.0484,0.0344,-0.9911,4.681,-9.249,-1.942
1772935213588.8723,-0.0519,0.0321,-0.9916,4.454,-9.467,-2.196
1772935213588.8723,-0.0514,0.0335,-0.9919,4.077,-9.931,-2.31
1772935213588.8723,-0.0522,0.0353,-0.9934,4.025,-10.159,-2.091
1772935213604.7122,-0.0541,0.0354,-0.9933,3.815,-10.482,-1.969
1772935213604.7122,-0.0529,0.0351,-0.9916,3.763,-10.509,-2.284
1772935213604.7122,-0.0547,0.0347,-0.993,3.587,-10.623,-2.485
1772935213604.7122,-0.0553,0.0352,-0.9893,3.395,-10.859,-2.31
1772935213604.7122,-0.0583,0.0334,-0.9862,3.386,-11.051,-2.485
1772935213604.7122,-0.057,0.0331,-0.9853,3.115,-10.99,-2.354
1772935213604.7122,-0.0579,0.0335,-0.9814,3.185,-11.078,-2.529
1772935213604.7122,-0.0592,0.0327,-0.9786,3.194,-11.078,-2.354
1772935213604.7122,-0.0595,0.0327,-0.9799,3.071,-11.043,-2.292
1772935213604.7122,-0.0589,0.0315,-0.98,3.237,-11.121,-2.205
1772935213604.7122,-0.0592,0.0307,-0.9773,3.264,-10.955,-2.24
1772935213604.7122,-0.0631,0.0294,-0.9786,3.342,-10.911,-2.083
1772935213604.7122,-0.0637,0.0296,-0.9803,3.264,-10.946,-1.934
1772935213619.7302,-0.0623,0.0278,-0.9816,3.421,-10.649,-1.811
1772935213619.7302,-0.0614,0.0278,-0.985,3.281,-10.631,-1.794
1772935213619.7302,-0.0642,0.0285,-0.9902,3.299,-10.596,-1.689
1772935213619.7302,-0.0634,0.0281,-0.9958,3.465,-10.404,-1.496
1772935213619.7302,-0.0633,0.0264,-0.9986,3.535,-10.421,-1.584
1772935213619.7302,-0.0619,0.0267,-1.0031,3.526,-10.299,-1.776
1772935213619.7302,-0.0645,0.0271,-1.0073,3.509,-10.299,-1.339
1772935213619.7302,-0.0621,0.0256,-1.0115,3.561,-10.561,-1.137
1772935213619.7302,-0.0605,0.0244,-1.0212,3.395,-10.36,-0.866
1772935213619.7302,-0.0601,0.0248,-1.0224,3.229,-10.762,-1.146
1772935213619.7302,-0.0605,0.0226,-1.0265,3.176,-10.894,-0.971
1772935213619.7302,-0.0606,0.0253,-1.0294,2.791,-10.894,-0.919
1772935213635.0344,-0.0628,0.022,-1.0282,2.389,-11.095,-0.884
1772935213635.0344,-0.0619,0.0223,-1.0285,1.706,-10.964,-0.831
1772935213635.0344,-0.0633,0.0227,-1.0285,1.321,-10.981,-0.901
1772935213635.0344,-0.0661,0.022,-1.022,0.604,-10.78,-0.884
1772935213635.0344,-0.0698,0.0203,-1.0152,-0.105,-10.754,-0.875
1772935213635.0344,-0.0727,0.0209,-1.0138,-0.919,-9.966,-0.744
1772935213635.0344,-0.075,0.0182,-1.0049,-1.522,-9.275,-0.919
1772935213635.0344,-0.0756,0.0203,-1.001,-2.695,-8.75,-1.199
1772935213635.0344,-0.0795,0.0199,-0.9941,-3.789,-8.006,-0.963
1772935213635.0344,-0.0814,0.0188,-0.9869,-4.497,-6.764,-1.024
1772935213635.0344,-0.082,0.0174,-0.9873,-5.652,-5.626,-1.155
1772935213635.0344,-0.0854,0.0164,-0.9822,-6.755,-4.156,-1.208
1772935213635.0344,-0.084,0.0167,-0.9796,-7.402,-2.888,-1.164
1772935213650.4697,-0.0859,0.0192,-0.9788,-8.295,-1.47,-1.269
1772935213650.4697,-0.0844,0.018,-0.9766,-9.258,0.035,-1.076
1772935213650.4697,-0.0855,0.0196,-0.9783,-9.66,1.47,-1.356
1772935213650.4697,-0.0845,0.0231,-0.9793,-10.019,2.704,-1.514
1772935213650.4697,-0.0842,0.0196,-0.9804,-10.412,3.929,-1.181
1772935213650.4697,-0.0794,0.0254,-0.9809,-10.369,5.101,-1.479
1772935213650.4697,-0.0778,0.0276,-0.9781,-10.176,6.011,-1.383
1772935213650.4697,-0.075,0.029,-0.98,-9.485,6.781,-1.304
1772935213650.4697,-0.0725,0.0325,-0.9765,-9.047,7.586,-1.26
1772935213650.4697,-0.0689,0.032,-0.9755,-8.059,7.91,-1.54
1772935213650.4697,-0.0655,0.0327,-0.9742,-7.105,7.954,-1.522
1772935213650.4697,-0.0626,0.0348,-0.9693,-6.221,7.814,-1.496
1772935213665.7686,-0.0584,0.0343,-0.9668,-4.76,7.779,-1.566
1772935213665.7686,-0.0586,0.0361,-0.9653,-3.57,7.245,-1.549
1772935213665.7686,-0.0551,0.0333,-0.9618,-2.415,6.23,-1.531
1772935213665.7686,-0.0519,0.033,-0.9559,-1.444,5.836,-1.969
1772935213665.7686,-0.0509,0.0322,-0.9548,-0.507,4.996,-1.811
1772935213665.7686,-0.0508,0.0286,-0.9535,0.551,3.535,-1.925
1772935213665.7686,-0.0462,0.029,-0.949,1.479,2.362,-1.794
1772935213665.7686,-0.0463,0.0255,-0.9469,1.986,1.391,-1.75
1772935213665.7686,-0.0455,0.0221,-0.9448,2.765,-0.166,-1.601
1772935213665.7686,-0.044,0.0226,-0.9452,3.386,-1.505,-1.584
1772935213665.7686,-0.0452,0.019,-0.9434,3.71,-3.036,-1.479
1772935213665.7686,-0.0447,0.0207,-0.9434,4.156,-4.497,-1.304
1772935213681.1675,-0.0437,0.0196,-0.9422,4.331,-5.924,-1.488
1772935213681.1675,-0.0459,0.0188,-0.9404,4.506,-7.166,-1.278
1772935213681.1675,-0.0457,0.0177,-0.9439,4.603,-8.776,-1.242
1772935213681.1675,-0.0441,0.0178,-0.9419,4.69,-9.826,-1.111
1772935213681.1675,-0.0473,0.0188,-0.9424,4.865,-11.34,-1.286
1772935213681.1675,-0.048,0.0177,-0.9438,5.049,-12.425,-1.295
1772935213681.1675,-0.0493,0.0175,-0.943,5.084,-13.457,-1.129
1772935213681.1675,-0.0506,0.0187,-0.9431,5.136,-14.578,-1.024
1772935213681.1675,-0.052,0.0171,-0.9454,5.031,-15.339,-1.129
1772935213681.1675,-0.0526,0.0188,-0.946,5.058,-15.829,-0.98
1772935213681.1675,-0.0548,0.017,-0.9467,4.97,-16.52,-1.032
1772935213681.1675,-0.0551,0.0181,-0.9509,4.926,-16.747,-1.111
1772935213681.1675,-0.056,0.0176,-0.9465,5.058,-16.992,-1.155
1772935213696.7778,-0.0562,0.018,-0.9502,4.83,-17.054,-1.129
1772935213696.7778,-0.0583,0.0172,-0.9524,4.751,-16.896,-1.452
1772935213696.7778,-0.0605,0.017,-0.9518,4.541,-16.949,-1.505
1772935213696.7778,-0.0604,0.0175,-0.9549,4.366,-16.695,-1.593
1772935213696.7778,-0.0612,0.0167,-0.9552,4.419,-16.546,-1.785
1772935213696.7778,-0.0612,0.0155,-0.9572,4.261,-16.1,-1.846
1772935213696.7778,-0.0627,0.0157,-0.9603,4.121,-15.479,-1.916
1772935213696.7778,-0.0636,0.0149,-0.9665,4.183,-14.656,-1.811
1772935213696.7778,-0.063,0.0168,-0.9659,3.824,-13.842,-1.759
1772935213696.7778,-0.0626,0.018,-0.9713,3.736,-13.352,-1.925
1772935213696.7778,-0.0616,0.015,-0.9734,3.369,-12.53,-1.899
1772935213696.7778,-0.0633,0.0169,-0.9781,3.211,-11.541,-1.759
1772935213712.1033,-0.0617,0.0152,-0.9808,2.853,-10.911,-1.61
1772935213712.1033,-0.0612,0.0165,-0.9847,2.651,-10.273,-1.531
1772935213712.1033,-0.0631,0.0178,-0.9872,2.205,-9.73,-1.706
1772935213712.1033,-0.0603,0.0188,-0.9926,2.039,-9.135,-1.881
1772935213712.1033,-0.0618,0.0191,-0.993,1.768,-8.234,-1.584
1772935213712.1033,-0.0598,0.019,-0.9956,1.356,-7.499,-1.321
1772935213712.1033,-0.0613,0.0163,-0.9905,1.006,-7.385,-1.339
1772935213712.1033,-0.0595,0.0196,-0.993,0.254,-6.633,-1.488
1772935213712.1033,-0.0597,0.0198,-0.997,-0.271,-6.029,-1.636
1772935213712.1033,-0.0565,0.0234,-0.9943,-0.831,-5.679,-1.584
1772935213712.1033,-0.0561,0.0238,-0.996,-1.094,-5.53,-1.391
1772935213712.1033,-0.0561,0.0253,-0.9978,-1.654,-4.9,-1.566
1772935213712.1033,-0.0558,0.0262,-0.9974,-2.074,-4.576,-1.444
1772935213727.315,-0.0518,0.0284,-0.9976,-2.196,-4.646,-1.584
1772935213727.315,-0.0533,0.0314,-0.9995,-2.564,-4.532,-1.82
1772935213727.315,-0.0521,0.0332,-0.9982,-2.835,-4.2,-1.558
1772935213727.315,-0.0519,0.0354,-0.9997,-2.879,-4.322,-1.496
1772935213727.315,-0.0513,0.0362,-0.9962,-2.94,-4.375,-1.802
1772935213727.315,-0.0501,0.0369,-0.9976,-2.599,-4.244,-1.811
1772935213727.315,-0.0486,0.0365,-0.9956,-2.231,-4.226,-1.925
1772935213727.315,-0.0484,0.0375,-0.9936,-2.152,-4.576,-2.083
1772935213727.315,-0.0494,0.037,-0.9916,-1.899,-4.524,-1.942
1772935213727.315,-0.0473,0.0386,-0.9887,-1.514,-4.463,-1.907
1772935213727.315,-0.0487,0.0396,-0.9881,-1.199,-4.926,-2.284
1772935213727.315,-0.0482,0.0396,-0.9833,-0.814,-5.32,-2.135
1772935213743.1987,-0.047,0.039,-0.9803,-0.56,-5.285,-2.083
1772935213743.1987,-0.0475,0.0403,-0.9798,-0.158,-5.346,-2.047
1772935213743.1987,-0.0475,0.0418,-0.979,0.018,-5.39,-2.161
1772935213743.1987,-0.0467,0.0428,-0.9764,0.201,-5.311,-2.065
1772935213743.1987,-0.0491,0.0434,-0.97,0.639,-5.67,-2.056
1772935213743.1987,-0.0464,0.0439,-0.9704,0.892,-6.064,-1.995
1772935213743.1987,-0.0476,0.0443,-0.9687,1.435,-5.968,-2.013
1772935213743.1987,-0.0467,0.0447,-0.9658,1.601,-5.933,-1.82
1772935213743.1987,-0.0487,0.0437,-0.9632,2.039,-6.107,-2.039
1772935213743.1987,-0.0473,0.044,-0.9654,2.17,-6.3,-2.013
1772935213743.1987,-0.0503,0.0422,-0.9625,2.467,-6.361,-2.021
1772935213743.1987,-0.0489,0.0443,-0.9643,2.634,-6.326,-2.074
1772935213743.1987,-0.0481,0.0418,-0.9651,2.993,-6.37,-1.855
1772935213759.0923,-0.049,0.0451,-0.9629,3.045,-6.344,-2.074
1772935213759.0923,-0.0495,0.0425,-0.9642,3.211,-6.475,-2.126
1772935213759.0923,-0.0509,0.0434,-0.9615,3.465,-6.58,-1.837
1772935213759.0923,-0.052,0.0429,-0.9591,3.649,-6.379,-1.846
1772935213759.0923,-0.051,0.0418,-0.9623,3.833,-6.396,-1.724
1772935213759.0923,-0.0511,0.0414,-0.9608,3.771,-6.414,-1.654
1772935213759.0923,-0.052,0.038,-0.9631,4.086,-6.519,-1.698
1772935213759.0923,-0.0493,0.0404,-0.9595,4.27,-6.527,-1.593
1772935213759.0923,-0.05,0.0398,-0.964,4.235,-6.396,-1.391
1772935213759.0923,-0.0525,0.0382,-0.9658,4.55,-6.256,-1.671
1772935213759.0923,-0.0551,0.0379,-0.962,4.961,-6.545,-1.426
1772935213759.0923,-0.0525,0.0348,-0.9632,4.918,-6.396,-1.452
1772935213759.0923,-0.0534,0.0364,-0.9656,4.795,-6.099,-1.383
1772935213774.2778,-0.054,0.0367,-0.9661,5.066,-5.994,-1.304
1772935213774.2778,-0.0552,0.0363,-0.9667,5.425,-5.889,-1.129
1772935213774.2778,-0.0562,0.0321,-0.9654,5.504,-5.994,-1.024
1772935213774.2778,-0.0544,0.0337,-0.9688,5.372,-5.968,-1.006
1772935213774.2778,-0.0542,0.0337,-0.9701,5.609,-6.046,-1.137
1772935213774.2778,-0.055,0.0335,-0.9702,5.854,-6.274,-1.067
1772935213774.2778,-0.0558,0.0329,-0.9708,5.723,-5.871,-1.094
1772935213774.2778,-0.0576,0.0318,-0.9748,5.976,-5.871,-1.05
1772935213774.2778,-0.0575,0.0295,-0.9744,5.819,-5.827,-1.155
1772935213774.2778,-0.0559,0.0265,-0.9731,5.67,-5.539,-1.164
1772935213774.2778,-0.0585,0.0271,-0.9736,5.644,-5.976,-1.076
1772935213774.2778,-0.0568,0.0271,-0.9729,5.661,-5.836,-0.796
1772935213789.8381,-0.0572,0.0267,-0.9719,5.845,-5.924,-1.129
1772935213789.8381,-0.0583,0.0268,-0.9767,6.046,-5.731,-0.971
1772935213789.8381,-0.0582,0.0247,-0.9726,5.775,-5.775,-0.875
1772935213789.8381,-0.0607,0.0246,-0.9744,5.862,-5.897,-0.849
1772935213789.8381,-0.0597,0.0249,-0.9751,5.766,-6.3,-0.927
1772935213789.8381,-0.0601,0.0221,-0.9758,5.723,-6.02,-1.234
1772935213789.8381,-0.059,0.022,-0.9759,5.766,-6.029,-1.103
1772935213789.8381,-0.0601,0.0243,-0.9751,5.775,-5.862,-1.05
1772935213789.8381,-0.0606,0.0227,-0.9732,5.521,-5.705,-1.085
1772935213789.8381,-0.0602,0.0225,-0.9768,5.548,-5.565,-1.181
1772935213789.8381,-0.0648,0.0224,-0.9766,5.46,-5.609,-1.181
1772935213789.8381,-0.0612,0.0219,-0.9767,5.565,-5.679,-1.242
1772935213789.8381,-0.0626,0.0219,-0.9734,5.661,-5.626,-1.19
1772935213805.8186,-0.0612,0.0245,-0.9729,5.25,-5.53,-1.269
1772935213805.8186,-0.0622,0.0221,-0.9778,5.232,-5.32,-1.426
1772935213805.8186,-0.0633,0.0218,-0.9748,5.268,-5.416,-1.558
1772935213805.8186,-0.067,0.0227,-0.9737,4.909,-5.241,-1.435
1772935213805.8186,-0.0612,0.0226,-0.9741,5.145,-5.32,-1.461
1772935213805.8186,-0.0625,0.0232,-0.9781,5.232,-5.381,-1.593
1772935213805.8186,-0.0609,0.0232,-0.9778,4.944,-5.294,-1.601
1772935213805.8186,-0.0615,0.0233,-0.9782,4.9,-5.241,-1.558
1772935213805.8186,-0.0635,0.0245,-0.9782,4.839,-5.18,-1.426
1772935213805.8186,-0.0656,0.0242,-0.9762,4.952,-5.346,-1.522
1772935213805.8186,-0.0653,0.0245,-0.9784,4.944,-5.206,-1.768
1772935213805.8186,-0.0632,0.0257,-0.9809,4.716,-5.399,-1.636
1772935213805.8186,-0.0648,0.0257,-0.9797,4.515,-5.285,-1.575
1772935213821.5994,-0.0645,0.0254,-0.9797,4.384,-5.25,-1.715
1772935213821.5994,-0.0655,0.0257,-0.9794,4.594,-5.206,-1.741
1772935213821.5994,-0.0629,0.0254,-0.9782,4.331,-5.364,-1.549
1772935213821.5994,-0.0636,0.0238,-0.9785,4.314,-5.224,-1.54
1772935213821.5994,-0.0652,0.0242,-0.9809,4.086,-5.407,-1.75
1772935213821.5994,-0.0613,0.0253,-0.9829,4.139,-5.346,-1.663
1772935213821.5994,-0.0655,0.0271,-0.9794,3.85,-5.801,-1.732
1772935213821.5994,-0.0636,0.0257,-0.9816,3.876,-5.652,-1.54
1772935213821.5994,-0.065,0.0251,-0.9821,3.841,-5.88,-1.417
1772935213821.5994,-0.0644,0.0264,-0.9826,3.587,-5.941,-1.514
1772935213821.5994,-0.0636,0.0274,-0.9841,3.587,-5.793,-1.724
1772935213821.5994,-0.0638,0.0273,-0.9848,3.36,-5.723,-1.636
1772935213821.5994,-0.065,0.0267,-0.9871,3.474,-5.985,-1.461
1772935213837.1597,-0.0631,0.0268,-0.9843,3.623,-6.02,-1.409
1772935213837.1597,-0.0652,0.0267,-0.9863,3.553,-6.405,-1.558
1772935213837.1597,-0.063,0.0251,-0.9846,3.64,-6.37,-1.61
1772935213837.1597,-0.0629,0.0259,-0.9862,3.658,-6.431,-1.61
1772935213837.1597,-0.0613,0.0281,-0.9854,3.229,-6.606,-1.452
1772935213837.1597,-0.0611,0.0249,-0.9855,3.413,-6.799,-1.558
1772935213837.1597,-0.0617,0.0261,-0.9847,3.518,-6.615,-1.496
1772935213837.1597,-0.0622,0.0248,-0.9838,3.491,-6.711,-1.601
1772935213837.1597,-0.0615,0.026,-0.9839,3.675,-7.035,-1.627
1772935213837.1597,-0.0627,0.0265,-0.9834,3.605,-7.061,-1.566
1772935213837.1597,-0.064,0.0265,-0.9836,3.465,-7.201,-1.47
1772935213837.1597,-0.0622,0.0261,-0.9822,3.57,-7.411,-1.286
1772935213853.3857,-0.0622,0.0271,-0.9833,3.491,-7.42,-1.409
1772935213853.3857,-0.0626,0.0271,-0.9815,3.57,-7.569,-1.383
1772935213853.3857,-0.0647,0.0277,-0.9826,3.474,-7.726,-1.444
1772935213853.3857,-0.062,0.0273,-0.9808,3.57,-7.63,-1.698
1772935213853.3857,-0.0651,0.0271,-0.9793,3.631,-7.376,-1.715
1772935213853.3857,-0.0627,0.0257,-0.9817,3.754,-7.683,-1.627
1772935213853.3857,-0.065,0.0281,-0.9812,3.745,-7.866,-1.566
1772935213853.3857,-0.0649,0.0271,-0.9798,3.509,-7.822,-1.566
1772935213853.3857,-0.0649,0.0304,-0.9778,3.763,-7.569,-1.566
1772935213853.3857,-0.0657,0.0298,-0.9797,3.771,-7.595,-1.514
1772935213853.3857,-0.0651,0.0303,-0.9778,3.5,-7.726,-1.417
1772935213853.3857,-0.0645,0.0292,-0.9815,3.92,-7.691,-1.575
1772935213853.3857,-0.0665,0.0285,-0.9786,3.824,-7.901,-1.89
1772935213869.3892,-0.0669,0.0292,-0.9786,3.763,-7.7,-2.126
1772935213869.3892,-0.0655,0.031,-0.9828,3.745,-7.656,-1.82
1772935213869.3892,-0.0647,0.0287,-0.98,3.78,-7.814,-1.531
1772935213869.3892,-0.0637,0.0321,-0.9838,3.955,-7.761,-1.654
1772935213869.3892,-0.0661,0.0295,-0.9845,4.104,-7.7,-1.732
1772935213869.3892,-0.0657,0.0304,-0.982,4.244,-7.928,-1.627
1772935213869.3892,-0.0653,0.0298,-0.9847,4.305,-7.822,-1.619
1772935213869.3892,-0.0675,0.03,-0.9846,4.419,-7.857,-1.654
1772935213869.3892,-0.0646,0.0327,-0.988,4.638,-7.989,-1.724
1772935213869.3892,-0.0642,0.0317,-0.9884,4.69,-8.085,-1.837
1772935213869.3892,-0.0626,0.0317,-0.9867,4.559,-8.155,-1.873
1772935213869.3892,-0.0631,0.0306,-0.99,4.532,-8.155,-1.776
1772935213869.3892,-0.0634,0.0314,-0.9901,4.497,-8.26,-1.671
1772935213884.9893,-0.0628,0.0332,-0.9951,4.515,-8.418,-1.619
1772935213884.9893,-0.0646,0.0314,-0.9952,4.699,-8.592,-1.61
1772935213884.9893,-0.0622,0.0317,-0.9944,4.699,-8.479,-1.636
1772935213884.9893,-0.063,0.0321,-0.9943,4.848,-8.575,-1.855
1772935213884.9893,-0.0623,0.0326,-0.9965,5.084,-8.557,-1.645
1772935213884.9893,-0.0639,0.0337,-0.9964,4.926,-8.706,-1.802
1772935213884.9893,-0.0629,0.0294,-0.9969,4.812,-8.864,-1.82
1772935213884.9893,-0.0636,0.0318,-0.9978,4.961,-8.741,-1.663
1772935213884.9893,-0.063,0.0328,-0.9975,4.961,-8.82,-1.601
1772935213884.9893,-0.0629,0.0325,-0.995,4.812,-9.214,-1.531
1772935213884.9893,-0.063,0.0317,-0.9965,4.83,-9.056,-1.768
1772935213884.9893,-0.0654,0.0319,-0.998,4.961,-9.1,-1.689
1772935213884.9893,-0.0639,0.0317,-0.998,4.777,-9.389,-1.785
1772935213901.0527,-0.066,0.0332,-0.996,4.401,-9.275,-1.549
1772935213901.0527,-0.064,0.0328,-0.9912,4.41,-9.284,-1.776
1772935213901.0527,-0.066,0.0316,-0.9927,4.707,-9.266,-1.907
1772935213901.0527,-0.0633,0.0298,-0.9906,4.576,-9.152,-1.881
1772935213901.0527,-0.066,0.0322,-0.991,4.725,-9.328,-1.776
1772935213901.0527,-0.0676,0.032,-0.9916,4.445,-8.943,-1.741
1772935213901.0527,-0.0662,0.0314,-0.9904,4.463,-9.126,-1.942
1772935213901.0527,-0.0658,0.03,-0.9869,4.559,-8.995,-1.907
1772935213901.0527,-0.0667,0.0298,-0.9862,4.594,-8.811,-1.978
1772935213901.0527,-0.0666,0.0303,-0.9858,4.655,-8.575,-1.802
1772935213901.0527,-0.0681,0.0288,-0.9831,4.655,-8.418,-1.689
1772935213901.0527,-0.0688,0.0291,-0.9826,4.603,-8.435,-1.864
1772935213901.0527,-0.0688,0.0277,-0.9845,4.62,-8.304,-1.907
1772935213916.851,-0.0676,0.0292,-0.9808,4.734,-8.085,-1.96
1772935213916.851,-0.0674,0.0261,-0.9834,4.751,-7.971,-1.873
1772935213916.851,-0.0704,0.0264,-0.9831,4.812,-8.085,-1.942
1772935213916.851,-0.0688,0.0265,-0.9798,4.742,-7.822,-1.934
1772935213916.851,-0.068,0.0259,-0.9822,4.769,-7.718,-1.811
1772935213916.851,-0.0675,0.0245,-0.9777,4.848,-7.499,-1.776
1772935213916.851,-0.0696,0.0251,-0.9807,5.005,-7.438,-1.671
1772935213916.851,-0.067,0.0237,-0.982,5.303,-7.14,-1.741
1772935213916.851,-0.067,0.0239,-0.9803,5.189,-7.166,-1.654
1772935213916.851,-0.067,0.0238,-0.9787,5.162,-7.061,-1.68
1772935213916.851,-0.0648,0.024,-0.9779,5.381,-7.114,-1.566
1772935213916.851,-0.0654,0.0222,-0.978,5.355,-6.956,-1.531
1772935213916.851,-0.0638,0.0224,-0.9783,5.311,-7.009,-1.26
1772935213932.4104,-0.0672,0.0246,-0.9764,5.39,-6.921,-1.365
1772935213932.4104,-0.0642,0.021,-0.9783,5.372,-7.07,-1.435
1772935213932.4104,-0.0664,0.0228,-0.9775,5.303,-7.018,-1.251
1772935213932.4104,-0.0653,0.02,-0.9775,5.241,-6.79,-1.208
1772935213932.4104,-0.0647,0.0204,-0.9777,5.022,-6.991,-1.435
1772935213932.4104,-0.0644,0.0199,-0.9786,5.022,-7.0,-1.461
1772935213932.4104,-0.0644,0.0212,-0.9775,5.04,-7.105,-1.225
1772935213932.4104,-0.0643,0.0179,-0.9745,5.005,-7.332,-1.295
1772935213932.4104,-0.064,0.0153,-0.972,4.681,-7.096,-1.251
1772935213932.4104,-0.0639,0.0147,-0.9748,4.375,-7.131,-1.321
1772935213932.4104,-0.0645,0.0171,-0.9772,4.183,-7.324,-1.269
1772935213932.4104,-0.0628,0.0178,-0.9773,4.165,-7.192,-1.208
1772935213947.538,-0.063,0.0182,-0.9786,4.218,-7.298,-1.137
1772935213947.538,-0.0623,0.0204,-0.9786,3.99,-7.359,-1.208
1772935213947.538,-0.0623,0.0193,-0.9817,3.841,-7.446,-1.33
1772935213947.538,-0.0625,0.019,-0.9825,3.561,-7.499,-1.242
1772935213947.538,-0.0632,0.0231,-0.9848,3.719,-7.91,-1.33
1772935213947.538,-0.0602,0.0239,-0.9877,3.85,-7.954,-1.409
1772935213947.538,-0.0606,0.0212,-0.99,4.086,-8.085,-1.566
1772935213947.538,-0.062,0.0215,-0.9887,4.401,-7.963,-1.514
1772935213947.538,-0.0597,0.0218,-0.992,4.428,-8.234,-1.417
1772935213947.538,-0.0611,0.0239,-0.9926,4.489,-8.759,-1.452
1772935213947.538,-0.0611,0.0201,-0.9897,4.515,-8.811,-1.505
1772935213947.538,-0.0636,0.0196,-0.9911,4.646,-9.205,-1.514
1772935213947.538,-0.063,0.022,-0.9932,4.795,-9.012,-1.654
1772935213962.9158,-0.0632,0.0195,-0.9899,4.883,-9.354,-1.715
1772935213962.9158,-0.0638,0.0214,-0.9873,5.25,-9.45,-1.916
1772935213962.9158,-0.0658,0.0223,-0.9886,5.049,-9.791,-1.671
1772935213962.9158,-0.0641,0.0195,-0.9888,4.961,-9.887,-1.995
1772935213962.9158,-0.0644,0.019,-0.9861,4.786,-9.835,-1.724
1772935213962.9158,-0.0636,0.0198,-0.9827,4.725,-9.852,-1.732
1772935213962.9158,-0.0651,0.0206,-0.9837,4.673,-9.607,-1.864
1772935213962.9158,-0.0629,0.0197,-0.9823,4.532,-9.887,-1.768
1772935213962.9158,-0.0648,0.0186,-0.9832,4.463,-10.264,-1.706
1772935213962.9158,-0.065,0.0189,-0.9794,4.384,-10.124,-1.706
1772935213962.9158,-0.0638,0.0198,-0.9781,4.261,-9.914,-1.741
1772935213962.9158,-0.0661,0.019,-0.9796,4.191,-9.931,-1.776
1772935213979.496,-0.0635,0.0199,-0.9786,4.104,-9.94,-1.855
1772935213979.496,-0.0658,0.0182,-0.9768,4.008,-10.054,-1.732
1772935213979.496,-0.0644,0.0192,-0.9772,3.911,-9.887,-1.601
1772935213979.496,-0.0624,0.0206,-0.9772,3.701,-9.59,-1.61
1772935213979.496,-0.0655,0.0204,-0.9739,3.64,-9.73,-1.75
1772935213979.496,-0.0667,0.0204,-0.9736,3.509,-9.415,-1.566
1772935213979.496,-0.0669,0.0191,-0.9772,3.447,-9.494,-1.566
1772935213979.496,-0.0646,0.0209,-0.9765,3.561,-9.467,-1.698
1772935213979.496,-0.0643,0.0203,-0.9756,3.544,-9.555,-1.837
1772935213979.496,-0.0655,0.0198,-0.979,3.614,-9.424,-1.698
1772935213979.496,-0.0639,0.0212,-0.9781,3.482,-9.284,-1.68
1772935213979.496,-0.0626,0.022,-0.9729,3.631,-9.188,-1.531
1772935213979.496,-0.0659,0.022,-0.9762,3.596,-9.17,-1.479
1772935213979.496,-0.0654,0.0234,-0.975,3.561,-8.995,-1.549
1772935213995.3025,-0.0652,0.0245,-0.9775,3.675,-8.759,-1.391
1772935213995.3025,-0.0642,0.0231,-0.9772,3.587,-8.864,-1.549
1772935213995.3025,-0.0636,0.0225,-0.973,3.623,-8.89,-1.374
1772935213995.3025,-0.0676,0.0246,-0.9728,3.701,-8.689,-1.627
1772935213995.3025,-0.0648,0.0221,-0.9753,3.649,-8.934,-1.671
1772935213995.3025,-0.0625,0.0253,-0.9762,3.71,-8.689,-1.409
1772935213995.3025,-0.0617,0.0248,-0.9743,3.649,-8.242,-1.593
1772935213995.3025,-0.0638,0.0248,-0.9764,3.316,-8.304,-1.75
1772935213995.3025,-0.0622,0.0269,-0.9748,3.5,-8.584,-1.575
1772935213995.3025,-0.0638,0.0283,-0.9776,3.561,-8.199,-1.654
1772935213995.3025,-0.0609,0.0267,-0.9806,3.395,-8.19,-1.601
1772935213995.3025,-0.0598,0.0298,-0.9787,3.351,-8.251,-1.636
1772935214010.3706,-0.0622,0.0285,-0.9789,3.421,-8.172,-1.593
1772935214010.3706,-0.0626,0.0269,-0.9786,3.509,-8.172,-1.619
1772935214010.3706,-0.0626,0.0274,-0.9808,3.57,-8.312,-1.435
1772935214010.3706,-0.0601,0.0295,-0.9804,3.579,-8.365,-1.391
1772935214010.3706,-0.0633,0.0301,-0.9797,3.342,-8.523,-1.522
1772935214010.3706,-0.0604,0.0304,-0.9798,3.526,-8.488,-1.505
1772935214010.3706,-0.0639,0.0286,-0.9804,3.351,-8.418,-1.759
1772935214010.3706,-0.0643,0.0312,-0.9814,3.272,-8.61,-1.741
1772935214010.3706,-0.0632,0.0298,-0.9811,3.456,-8.47,-1.776
1772935214010.3706,-0.064,0.0301,-0.9809,3.43,-8.689,-1.829
1772935214010.3706,-0.062,0.0301,-0.9795,3.447,-8.759,-1.776
1772935214010.3706,-0.0634,0.0312,-0.9806,3.377,-8.881,-1.566
1772935214010.3706,-0.0642,0.0296,-0.9789,3.518,-8.864,-1.89
1772935214025.8804,-0.0655,0.0281,-0.979,3.482,-8.951,-1.61
1772935214025.8804,-0.0658,0.0289,-0.9781,3.509,-8.916,-1.794
1772935214025.8804,-0.0664,0.029,-0.9805,3.421,-8.96,-1.636
1772935214025.8804,-0.0651,0.0289,-0.9772,3.421,-8.838,-1.671
1772935214025.8804,-0.0658,0.029,-0.9789,3.456,-8.934,-1.549
1772935214025.8804,-0.0683,0.0247,-0.9742,3.675,-9.109,-1.627
1772935214025.8804,-0.0688,0.0279,-0.9762,3.701,-8.768,-1.531
1772935214025.8804,-0.0683,0.0278,-0.977,3.596,-8.881,-1.531
1772935214025.8804,-0.0667,0.0267,-0.9752,3.701,-8.899,-1.645
1772935214025.8804,-0.0678,0.0258,-0.9743,3.535,-8.995,-1.873
1772935214025.8804,-0.0669,0.0234,-0.9761,3.439,-9.056,-1.785
1772935214025.8804,-0.0686,0.0252,-0.9725,3.544,-8.969,-1.619
1772935214041.5745,-0.0688,0.0244,-0.9722,3.658,-8.811,-1.68
1772935214041.5745,-0.0722,0.0232,-0.9738,3.5,-8.768,-1.759
1772935214041.5745,-0.0697,0.0228,-0.9739,3.5,-8.645,-1.706
1772935214041.5745,-0.0709,0.0229,-0.9733,3.754,-8.505,-1.461
1772935214041.5745,-0.0703,0.0221,-0.9726,3.491,-8.627,-1.549
1772935214041.5745,-0.0705,0.0193,-0.9734,3.797,-8.505,-1.619
1772935214041.5745,-0.0692,0.0212,-0.9722,3.754,-8.348,-1.54
1772935214041.5745,-0.0712,0.0203,-0.9738,3.859,-8.312,-1.4
1772935214041.5745,-0.0691,0.0193,-0.9745,3.745,-8.295,-1.461
1772935214041.5745,-0.0688,0.0205,-0.9726,3.841,-8.111,-1.488
1772935214041.5745,-0.0719,0.0182,-0.9765,3.789,-8.26,-1.837
1772935214041.5745,-0.0708,0.0183,-0.9743,3.815,-8.111,-1.61
1772935214041.5745,-0.0706,0.0182,-0.9755,4.077,-8.05,-1.452
1772935214057.0984,-0.0716,0.0178,-0.9756,3.824,-7.936,-1.636
1772935214057.0984,-0.0717,0.0181,-0.9789,3.833,-8.05,-1.452
1772935214057.0984,-0.0728,0.0192,-0.9767,3.911,-7.945,-1.461
1772935214057.0984,-0.0697,0.0176,-0.9781,3.902,-8.137,-1.61
1772935214057.0984,-0.0714,0.0202,-0.9789,3.964,-7.814,-1.689
1772935214057.0984,-0.0715,0.0185,-0.9805,3.771,-7.945,-1.689
1772935214057.0984,-0.0718,0.019,-0.9784,3.824,-8.05,-1.68
1772935214057.0984,-0.0711,0.02,-0.9799,3.797,-8.461,-1.558
1772935214057.0984,-0.0691,0.0193,-0.9828,3.902,-8.164,-1.724
1772935214057.0984,-0.0706,0.0194,-0.9795,3.797,-8.146,-1.549
1772935214057.0984,-0.0713,0.0176,-0.9815,3.701,-8.365,-1.461
1772935214057.0984,-0.0705,0.0197,-0.982,3.771,-8.304,-1.61
1772935214073.4663,-0.0684,0.0204,-0.9828,3.763,-8.251,-1.698
1772935214073.4663,-0.0715,0.02,-0.9837,3.728,-8.181,-1.776
1772935214073.4663,-0.0708,0.0203,-0.9845,3.675,-8.225,-1.627
1772935214073.4663,-0.0695,0.0186,-0.9851,3.736,-8.321,-1.698
1772935214073.4663,-0.0738,0.0176,-0.9867,3.474,-8.251,-1.732
1772935214073.4663,-0.0692,0.0195,-0.981,3.447,-8.461,-1.75
1772935214073.4663,-0.0697,0.0198,-0.9839,3.518,-8.461,-1.811
1772935214073.4663,-0.0704,0.0176,-0.9854,3.623,-8.242,-1.986
1772935214073.4663,-0.0699,0.0201,-0.9817,3.482,-8.426,-1.986
1772935214073.4663,-0.0706,0.018,-0.9814,3.404,-8.348,-1.837
1772935214073.4663,-0.0702,0.0186,-0.9816,3.377,-8.321,-1.776
1772935214073.4663,-0.0717,0.0207,-0.9823,3.246,-8.662,-1.829
1772935214073.4663,-0.069,0.0199,-0.9829,3.377,-8.496,-1.916
1772935214073.4663,-0.0722,0.0201,-0.9833,3.203,-8.794,-1.855
1772935214089.3464,-0.0712,0.0188,-0.9844,3.106,-8.566,-1.899
1772935214089.3464,-0.0716,0.0204,-0.9815,3.062,-8.426,-1.907
1772935214089.3464,-0.0709,0.02,-0.9784,2.914,-8.601,-1.934
1772935214089.3464,-0.0731,0.0199,-0.9811,2.931,-8.4,-1.724
1772935214089.3464,-0.072,0.0178,-0.9822,2.984,-8.146,-2.013
1772935214089.3464,-0.073,0.0191,-0.9801,2.905,-8.365,-2.039
1772935214089.3464,-0.0734,0.0192,-0.9797,2.712,-8.304,-1.768
1772935214089.3464,-0.074,0.017,-0.9804,2.817,-8.155,-1.575
1772935214089.3464,-0.0744,0.0199,-0.9821,2.73,-8.426,-1.785
1772935214089.3464,-0.0759,0.0168,-0.9795,2.686,-8.601,-1.907
1772935214089.3464,-0.0777,0.0173,-0.9822,2.73,-8.47,-1.741
1772935214089.3464,-0.0756,0.0167,-0.9811,2.817,-8.453,-1.706
1772935214089.3464,-0.0751,0.0159,-0.9743,2.634,-8.304,-1.654
1772935214104.688,-0.0786,0.0137,-0.9709,2.345,-8.277,-1.663
1772935214104.688,-0.0745,0.0127,-0.9717,2.056,-7.875,-1.811
1772935214104.688,-0.0757,0.0111,-0.972,1.846,-7.63,-1.619
1772935214104.688,-0.0773,0.0151,-0.9744,1.531,-7.945,-1.601
1772935214104.688,-0.077,0.0137,-0.9742,1.496,-7.849,-1.724
1772935214104.688,-0.0765,0.0143,-0.9737,1.461,-7.866,-1.488
1772935214104.688,-0.0763,0.0167,-0.9734,1.173,-7.875,-1.654
1772935214104.688,-0.0775,0.0162,-0.9754,0.945,-7.49,-1.488
1772935214104.688,-0.0759,0.0186,-0.9787,1.155,-7.525,-1.584
1772935214104.688,-0.0751,0.0224,-0.9778,1.05,-7.551,-1.663
1772935214104.688,-0.0745,0.0203,-0.9818,0.884,-7.28,-1.391
1772935214104.688,-0.0765,0.0208,-0.9821,1.339,-7.131,-1.636
1772935214119.9055,-0.0755,0.0242,-0.9847,1.654,-7.306,-1.794
1772935214119.9055,-0.0748,0.0223,-0.9889,1.768,-7.665,-1.768
1772935214119.9055,-0.0766,0.0228,-0.9889,1.907,-7.612,-1.636
1772935214119.9055,-0.0753,0.0224,-0.9881,2.144,-7.718,-1.698
1772935214119.9055,-0.0748,0.0242,-0.9877,2.275,-7.857,-1.654
1772935214119.9055,-0.074,0.0234,-0.9859,2.546,-7.674,-1.89
1772935214119.9055,-0.0771,0.0242,-0.9867,2.494,-7.875,-1.794
1772935214119.9055,-0.077,0.0221,-0.9814,2.975,-8.111,-1.899
1772935214119.9055,-0.0762,0.0208,-0.9824,3.045,-7.814,-1.881
1772935214119.9055,-0.0775,0.0221,-0.9788,2.861,-8.041,-2.039
1772935214119.9055,-0.0774,0.0238,-0.9772,2.809,-8.024,-1.776
1772935214119.9055,-0.077,0.0249,-0.9763,2.896,-8.102,-1.864
1772935214135.4578,-0.077,0.0232,-0.9749,2.914,-7.971,-2.196
1772935214135.4578,-0.0789,0.021,-0.9753,2.984,-8.155,-1.881
1772935214135.4578,-0.0761,0.0224,-0.9754,2.922,-7.971,-1.969
1772935214135.4578,-0.08,0.024,-0.9717,2.844,-7.91,-2.144
1772935214135.4578,-0.0812,0.0217,-0.9703,2.87,-7.814,-1.907
1772935214135.4578,-0.0795,0.0232,-0.9689,2.678,-7.761,-1.969
1772935214135.4578,-0.0782,0.0217,-0.9702,2.879,-7.595,-2.188
1772935214135.4578,-0.0789,0.0256,-0.9708,2.914,-7.647,-1.951
1772935214135.4578,-0.08,0.0221,-0.9721,2.896,-7.359,-1.899
1772935214135.4578,-0.0798,0.0229,-0.9689,2.914,-6.982,-1.811
1772935214135.4578,-0.0802,0.0232,-0.9708,2.931,-7.289,-1.907
1772935214135.4578,-0.078,0.022,-0.9695,2.8,-7.263,-2.188
1772935214135.4578,-0.0792,0.0228,-0.9707,3.054,-7.149,-2.083
1772935214151.2544,-0.0783,0.0235,-0.9709,2.678,-6.86,-1.89
1772935214151.2544,-0.0791,0.0229,-0.9703,2.73,-6.598,-1.881
1772935214151.2544,-0.079,0.0236,-0.9737,2.914,-6.755,-1.671
1772935214151.2544,-0.0791,0.0237,-0.9734,2.94,-6.825,-1.636
1772935214151.2544,-0.0768,0.0224,-0.9718,2.993,-6.702,-1.698
1772935214151.2544,-0.0777,0.0226,-0.9715,2.975,-6.545,-1.811
1772935214151.2544,-0.077,0.0232,-0.9724,3.115,-6.598,-1.846
1772935214151.2544,-0.08,0.0251,-0.9729,3.185,-6.606,-1.715
1772935214151.2544,-0.0779,0.0254,-0.9766,2.817,-6.685,-1.715
1772935214151.2544,-0.0776,0.0204,-0.9746,3.141,-6.598,-1.601
1772935214151.2544,-0.0786,0.0248,-0.9752,3.019,-6.492,-1.759
1772935214151.2544,-0.0784,0.0246,-0.976,3.272,-6.589,-1.627
1772935214151.2544,-0.0767,0.0237,-0.9769,3.342,-6.527,-1.811
1772935214166.6555,-0.0778,0.0254,-0.9771,3.308,-6.221,-1.645
1772935214166.6555,-0.0774,0.0253,-0.9784,3.482,-6.606,-1.837
1772935214166.6555,-0.0782,0.0251,-0.9796,3.185,-6.904,-1.776
1772935214166.6555,-0.0752,0.0247,-0.9817,3.281,-6.79,-1.312
1772935214166.6555,-0.0776,0.0243,-0.9805,3.229,-6.65,-1.645
1772935214166.6555,-0.0756,0.0256,-0.9819,3.299,-6.912,-1.505
1772935214166.6555,-0.0763,0.0259,-0.9822,3.71,-7.061,-1.575
1772935214166.6555,-0.0767,0.025,-0.9812,3.579,-7.245,-1.645
1772935214166.6555,-0.0745,0.0263,-0.983,3.43,-7.315,-1.732
1772935214166.6555,-0.0749,0.027,-0.9847,3.369,-7.245,-1.452
1772935214166.6555,-0.0737,0.026,-0.9865,3.789,-7.402,-1.479
1772935214166.6555,-0.0755,0.0242,-0.9851,3.553,-7.63,-1.663
1772935214182.39,-0.0766,0.0245,-0.983,3.447,-7.438,-1.785
1772935214182.39,-0.0762,0.0256,-0.9833,3.404,-7.656,-1.794
1772935214182.39,-0.0748,0.0243,-0.9848,3.404,-7.674,-1.759
1772935214182.39,-0.0758,0.0259,-0.9847,3.544,-8.006,-1.601
1772935214182.39,-0.0759,0.0257,-0.9817,3.377,-8.164,-1.601
1772935214182.39,-0.0756,0.0263,-0.9823,3.308,-7.901,-1.75
1772935214182.39,-0.0758,0.0259,-0.9853,3.308,-7.875,-1.654
1772935214182.39,-0.0748,0.0259,-0.983,3.115,-7.971,-1.584
1772935214182.39,-0.0763,0.0265,-0.9832,3.281,-8.225,-1.837
1772935214182.39,-0.0752,0.0262,-0.9817,3.229,-8.181,-1.802
1772935214182.39,-0.0754,0.0247,-0.9814,3.255,-8.339,-1.732
1772935214182.39,-0.0755,0.0261,-0.9831,3.089,-8.277,-1.873
1772935214182.39,-0.0757,0.0265,-0.9814,3.255,-8.137,-1.776
1772935214198.3528,-0.0746,0.0258,-0.9859,3.29,-8.321,-1.645
1772935214198.3528,-0.0753,0.0262,-0.982,2.896,-8.566,-1.549
1772935214198.3528,-0.0773,0.0237,-0.9832,3.08,-8.251,-1.488
1772935214198.3528,-0.0754,0.0251,-0.9819,3.255,-8.225,-1.645
1772935214198.3528,-0.0762,0.0237,-0.9823,3.141,-8.19,-1.627
1772935214198.3528,-0.0764,0.0246,-0.9795,3.176,-8.137,-1.663
1772935214198.3528,-0.0765,0.0259,-0.9808,3.22,-7.822,-1.951
1772935214198.3528,-0.0758,0.0254,-0.9819,3.089,-8.076,-1.663
1772935214198.3528,-0.078,0.0264,-0.9811,3.062,-8.172,-1.96
1772935214198.3528,-0.0762,0.0262,-0.9804,3.325,-8.426,-1.671
1772935214198.3528,-0.0773,0.0254,-0.9798,2.949,-8.172,-1.347
1772935214198.3528,-0.0758,0.0238,-0.9806,2.975,-8.251,-1.54
1772935214198.3528,-0.0768,0.0238,-0.9787,2.966,-8.286,-1.426
1772935214213.761,-0.0767,0.0245,-0.9784,2.993,-8.146,-1.601
1772935214213.761,-0.0745,0.023,-0.9809,2.975,-8.111,-1.645
1772935214213.761,-0.075,0.0226,-0.9765,2.993,-8.321,-1.601
1772935214213.761,-0.0779,0.0239,-0.9772,3.08,-8.383,-1.365
1772935214213.761,-0.0788,0.0249,-0.9794,3.185,-8.207,-1.627
1772935214214.2656,-0.0795,0.0211,-0.9777,3.045,-8.216,-1.461
1772935214214.2656,-0.0773,0.0221,-0.9789,3.115,-8.146,-1.321
1772935214214.2656,-0.0786,0.0238,-0.9781,3.229,-8.365,-1.47
1772935214214.2656,-0.0784,0.0228,-0.9787,3.159,-8.251,-1.514
1772935214214.2656,-0.0777,0.0238,-0.9791,3.08,-8.33,-1.365
1772935214214.2656,-0.0773,0.0226,-0.9795,2.931,-8.172,-1.479
1772935214214.2656,-0.0798,0.0228,-0.9754,2.94,-8.216,-1.593
1772935214214.2656,-0.0776,0.0237,-0.976,3.08,-8.068,-1.383
1772935214229.4812,-0.0805,0.0217,-0.9779,2.835,-8.418,-1.173
1772935214229.4812,-0.078,0.0201,-0.9766,2.721,-8.321,-1.251
1772935214229.4812,-0.0794,0.0239,-0.975,2.966,-8.024,-1.4
1772935214229.4812,-0.0821,0.0193,-0.9764,3.036,-7.971,-1.435
1772935214229.4812,-0.0819,0.0195,-0.9764,3.001,-7.954,-1.417
1772935214229.4812,-0.0784,0.0198,-0.9776,2.905,-8.12,-1.295
1772935214229.4812,-0.0772,0.0209,-0.9768,2.958,-8.172,-1.146
1772935214229.4812,-0.0802,0.0213,-0.9756,2.783,-8.172,-1.173
1772935214229.4812,-0.08,0.0202,-0.976,2.993,-8.085,-1.251
1772935214229.4812,-0.0782,0.0215,-0.9753,2.835,-7.971,-1.181
1772935214229.4812,-0.0767,0.0217,-0.9803,3.071,-8.094,-1.374
1772935214229.4812,-0.0774,0.0201,-0.9777,3.036,-8.199,-1.452
1772935214245.5745,-0.0777,0.0209,-0.9771,3.027,-7.963,-1.339
1772935214245.5745,-0.077,0.0205,-0.9742,3.062,-8.111,-1.278
1772935214245.5745,-0.0766,0.0201,-0.9781,2.888,-7.901,-1.295
1772935214245.5745,-0.0785,0.0177,-0.9756,2.914,-8.155,-1.505
1772935214245.5745,-0.0786,0.0198,-0.9758,2.958,-7.98,-1.426
1772935214245.5745,-0.078,0.0207,-0.9765,2.8,-7.989,-1.505
1772935214245.5745,-0.0781,0.0187,-0.9785,3.071,-8.033,-1.286
1772935214245.5745,-0.0773,0.0217,-0.9784,3.15,-7.997,-1.4
1772935214245.5745,-0.0769,0.0184,-0.9753,2.896,-8.05,-1.278
1772935214245.5745,-0.0782,0.0189,-0.9755,2.993,-7.936,-1.164
1772935214245.5745,-0.0759,0.0199,-0.9778,2.905,-8.111,-1.225
1772935214245.5745,-0.0767,0.0207,-0.9762,2.896,-7.805,-1.129
1772935214245.5745,-0.0758,0.0204,-0.9756,2.721,-7.639,-1.006
1772935214261.1553,-0.0784,0.0193,-0.9773,2.538,-7.753,-1.19
1772935214261.1553,-0.0786,0.0215,-0.9757,2.546,-7.726,-1.251
1772935214261.1553,-0.0765,0.0223,-0.979,2.721,-7.779,-1.181
1772935214261.1553,-0.0763,0.0196,-0.9779,2.791,-7.674,-1.041
1772935214261.1553,-0.0773,0.0196,-0.9805,2.66,-7.647,-1.33
1772935214261.1553,-0.0756,0.0211,-0.9776,2.625,-7.822,-1.19
1772935214261.1553,-0.0768,0.0196,-0.9783,2.52,-7.98,-1.269
1772935214261.1553,-0.0775,0.0229,-0.9796,2.538,-7.849,-1.26
1772935214261.1553,-0.0788,0.0223,-0.9778,2.564,-7.945,-1.208
1772935214261.1553,-0.0754,0.0214,-0.9778,2.616,-8.277,-1.26
1772935214261.1553,-0.0764,0.0195,-0.9788,2.643,-8.225,-1.47
1772935214261.1553,-0.0775,0.0235,-0.9787,2.555,-8.006,-1.54
1772935214261.1553,-0.0755,0.0216,-0.9814,2.643,-8.085,-1.461
1772935214276.3037,-0.0782,0.0221,-0.9803,2.59,-8.365,-1.242
1772935214276.3037,-0.0773,0.0233,-0.976,2.467,-8.216,-1.26
1772935214276.3037,-0.0775,0.0243,-0.9767,2.424,-7.98,-1.488
1772935214276.3037,-0.0781,0.0234,-0.9813,2.328,-8.006,-1.426
1772935214276.3037,-0.077,0.0227,-0.9772,2.467,-8.041,-1.522
1772935214276.3037,-0.077,0.0237,-0.978,2.371,-8.199,-1.374
1772935214276.3037,-0.0766,0.0236,-0.9776,2.214,-8.033,-1.356
1772935214276.3037,-0.0791,0.0234,-0.9795,2.179,-7.997,-1.19
1772935214276.3037,-0.0786,0.0234,-0.9787,2.284,-8.041,-1.111
1772935214276.3037,-0.079,0.0229,-0.9786,2.494,-8.172,-1.417
1772935214276.3037,-0.0777,0.0237,-0.9756,2.599,-8.12,-1.452
1772935214276.3037,-0.0771,0.0246,-0.9771,2.625,-8.339,-1.339
1772935214292.3337,-0.0762,0.0232,-0.9731,2.599,-8.383,-1.4
1772935214292.3337,-0.0773,0.0235,-0.9756,2.266,-8.094,-1.426
1772935214292.3337,-0.08,0.0248,-0.9724,2.336,-8.024,-1.278
1772935214292.3337,-0.0782,0.0234,-0.9736,2.555,-8.024,-1.33
1772935214292.3337,-0.0797,0.0242,-0.9731,2.467,-7.656,-1.356
1772935214292.3337,-0.0818,0.0242,-0.9731,2.555,-7.919,-1.356
1772935214292.3337,-0.0797,0.0242,-0.9765,2.695,-7.718,-1.61
1772935214292.3337,-0.0811,0.0237,-0.9699,2.748,-7.455,-1.837
1772935214292.3337,-0.0818,0.0239,-0.9743,2.66,-7.63,-1.426
1772935214292.3337,-0.0813,0.0223,-0.9712,2.564,-7.543,-1.461
1772935214292.3337,-0.0779,0.0252,-0.9694,2.59,-7.551,-1.496
1772935214292.3337,-0.0796,0.0254,-0.97,2.651,-7.289,-1.654
1772935214292.3337,-0.083,0.0222,-0.9729,2.424,-7.394,-1.444
1772935214307.8752,-0.0808,0.0225,-0.9712,2.704,-7.385,-1.522
1772935214307.8752,-0.082,0.0219,-0.9722,2.844,-7.385,-1.514
1772935214307.8752,-0.0822,0.0234,-0.9699,2.888,-7.122,-1.706
1772935214307.8752,-0.0808,0.0227,-0.9716,2.791,-6.886,-1.601
1772935214307.8752,-0.081,0.022,-0.9703,2.879,-6.79,-1.636
1772935214307.8752,-0.0805,0.0218,-0.9684,2.739,-6.527,-1.654
1772935214307.8752,-0.0794,0.0212,-0.9715,2.748,-6.624,-1.636
1772935214307.8752,-0.08,0.0229,-0.972,2.669,-6.676,-1.645
1772935214307.8752,-0.0808,0.0228,-0.97,2.931,-6.746,-1.636
1772935214307.8752,-0.0774,0.0223,-0.9717,2.861,-6.405,-1.522
1772935214307.8752,-0.0816,0.0207,-0.9719,2.765,-6.641,-1.654
1772935214307.8752,-0.0813,0.0223,-0.974,2.748,-6.449,-1.811
1772935214307.8752,-0.0802,0.0191,-0.9701,2.651,-6.492,-1.584
1772935214323.962,-0.0821,0.0173,-0.9676,2.616,-6.562,-1.794
1772935214323.962,-0.0849,0.0177,-0.9667,2.756,-6.405,-1.759
1772935214323.962,-0.0828,0.02,-0.9683,2.529,-6.353,-1.785
1772935214323.962,-0.0813,0.0178,-0.9662,2.24,-6.178,-1.645
1772935214323.962,-0.0848,0.0197,-0.9665,2.109,-5.889,-1.496
1772935214323.962,-0.0845,0.0199,-0.9692,1.732,-6.064,-1.619
1772935214323.962,-0.0847,0.017,-0.9689,1.514,-6.195,-1.514
1772935214323.962,-0.083,0.0198,-0.9689,1.461,-5.749,-1.619
1772935214323.962,-0.0839,0.0206,-0.9676,1.312,-5.399,-1.654
1772935214323.962,-0.082,0.0212,-0.969,1.111,-5.162,-1.671
1772935214323.962,-0.0844,0.0231,-0.971,1.312,-5.434,-1.802
1772935214323.962,-0.0841,0.023,-0.9753,1.417,-5.18,-1.558
