Time_ms,ax,ay,az,gx,gy,gz
1772932653623.2017,-0.1277,-0.0092,-0.9639,3.395,-5.058,-1.488
1772932653623.2017,-0.1275,-0.008,-0.9671,3.124,-4.795,-1.627
1772932653623.2017,-0.128,-0.0057,-0.9658,2.931,-4.603,-1.234
1772932653623.2017,-0.1282,-0.0059,-0.9676,3.071,-4.638,-1.566
1772932653638.604,-0.1286,-0.0051,-0.9667,3.141,-4.874,-1.391
1772932653638.604,-0.1296,-0.0059,-0.9699,3.08,-4.716,-1.461
1772932653638.604,-0.1278,-0.0052,-0.9689,3.176,-4.62,-1.339
1772932653638.604,-0.1278,-0.0032,-0.9717,3.08,-5.022,-1.417
1772932653653.8767,-0.1271,-0.0045,-0.9741,3.001,-5.066,-1.566
1772932653653.8767,-0.1292,-0.0049,-0.9771,3.299,-5.372,-1.435
1772932653653.8767,-0.1308,-0.0048,-0.977,3.194,-5.6,-1.409
1772932653653.8767,-0.1305,-0.0029,-0.9797,2.993,-5.88,-1.278
1772932653668.639,-0.1289,-0.0049,-0.9795,3.089,-5.915,-1.383
1772932653668.639,-0.1302,-0.007,-0.9801,3.124,-6.213,-1.409
1772932653668.639,-0.1276,-0.0066,-0.9742,3.08,-6.344,-1.514
1772932653668.639,-0.1282,-0.0087,-0.9773,3.185,-6.37,-1.269
1772932653668.639,-0.1263,-0.007,-0.9721,2.896,-6.423,-1.111
1772932653684.5728,-0.1247,-0.0079,-0.9694,2.931,-6.247,-1.173
1772932653684.5728,-0.1252,-0.007,-0.9686,2.721,-6.02,-1.234
1772932653699.7395,-0.1253,-0.0076,-0.9673,2.835,-5.985,-1.208
1772932653699.7395,-0.1262,-0.0052,-0.9659,2.774,-5.469,-1.103
1772932653699.7395,-0.1275,-0.0053,-0.9644,2.581,-5.478,-1.417
1772932653699.7395,-0.1274,-0.0047,-0.9616,2.625,-4.874,-1.461
1772932653699.7395,-0.1279,-0.0053,-0.9644,2.371,-4.471,-1.435
1772932653714.972,-0.1305,-0.0049,-0.9577,2.083,-4.069,-1.094
1772932653714.972,-0.1337,-0.006,-0.959,1.75,-3.482,-1.531
1772932653714.972,-0.1321,-0.004,-0.9612,1.96,-3.264,-1.339
1772932653714.972,-0.1329,-0.0046,-0.9622,1.663,-2.879,-1.041
1772932653730.876,-0.1326,-0.0038,-0.9719,1.89,-2.809,-1.208
1772932653730.876,-0.131,-0.0016,-0.9758,1.925,-3.054,-1.426
1772932653730.876,-0.1301,-0.0049,-0.9853,2.118,-3.351,-1.234
1772932653730.876,-0.1308,-0.0059,-0.9897,2.389,-4.2,-1.654
1772932653746.4285,-0.1283,-0.0061,-0.9933,2.844,-5.11,-1.514
1772932653746.4285,-0.1272,-0.0061,-0.997,3.544,-6.169,-1.741
1772932653746.4285,-0.126,-0.0094,-0.9967,4.034,-7.14,-1.575
1772932653746.4285,-0.1276,-0.0109,-0.9883,4.769,-7.84,-1.759
1772932653762.0251,-0.1268,-0.012,-0.9769,4.725,-8.076,-1.452
1772932653762.0251,-0.125,-0.0154,-0.9688,4.812,-7.761,-1.566
1772932653762.0251,-0.1209,-0.014,-0.959,4.183,-7.236,-1.33
1772932653777.767,-0.1182,-0.0138,-0.9545,3.08,-5.758,-0.963
1772932653777.767,-0.1158,-0.014,-0.9465,1.978,-5.25,-0.954
1772932653777.767,-0.1158,-0.0116,-0.9385,0.726,-3.85,-1.006
1772932653777.767,-0.1174,-0.01,-0.942,0.018,-2.949,-0.814
1772932653777.767,-0.118,-0.0079,-0.946,-0.647,-2.03,-1.024
1772932653793.86,-0.1186,-0.0027,-0.9645,-0.28,-1.444,-0.998
1772932653793.86,-0.1194,-0.0004,-0.9952,1.103,-2.17,-1.26
1772932653793.86,-0.1247,-0.0017,-1.013,1.759,-3.237,-1.164
1772932653793.86,-0.1271,-0.0021,-1.0234,3.167,-5.434,-1.05
1772932653809.0044,-0.1295,-0.0032,-1.0099,3.876,-7.114,-0.963
1772932653809.0044,-0.1328,-0.0088,-0.9966,4.436,-8.339,-1.103
1772932653809.0044,-0.1355,-0.0092,-0.9781,4.419,-9.17,-0.98
1772932653809.0044,-0.1358,-0.0076,-0.9579,3.763,-8.557,-0.718
1772932653825.1047,-0.1325,-0.0056,-0.9514,3.71,-7.21,-0.507
1772932653825.1047,-0.1298,-0.0031,-0.954,3.299,-6.239,-0.481
1772932653825.1047,-0.1279,0.0009,-0.9597,2.817,-5.381,-0.735
1772932653825.1047,-0.126,0.006,-0.9646,3.054,-4.83,-0.787
1772932653841.758,-0.1284,0.004,-0.9767,2.958,-4.489,-0.98
1772932653841.758,-0.1302,0.0049,-0.9871,2.888,-4.454,-1.155
1772932653841.758,-0.1344,0.0034,-0.9944,2.914,-4.305,-1.12
1772932653841.758,-0.1376,-0.0138,-0.9932,2.625,-3.78,-1.164
1772932653841.758,-0.1396,-0.0016,-0.9856,2.73,-3.001,-1.295
1772932653856.9233,-0.1396,-0.0014,-0.975,2.24,-2.371,-1.444
1772932653856.9233,-0.1407,-0.0035,-0.9739,2.065,-1.4,-1.505
1772932653856.9233,-0.1369,-0.0071,-0.9723,2.126,-1.558,-1.295
1772932653856.9233,-0.1365,-0.01,-0.9711,2.345,-2.336,-1.505
1772932653873.0735,-0.1338,-0.0131,-0.9675,2.599,-3.229,-1.61
1772932653873.0735,-0.1321,-0.0205,-0.9637,2.144,-4.095,-1.426
1772932653873.0735,-0.1296,-0.022,-0.9637,2.065,-5.171,-1.741
1772932653888.2097,-0.1268,-0.0242,-0.968,1.785,-5.574,-1.549
1772932653888.2097,-0.1243,-0.0233,-0.9706,1.242,-6.064,-1.33
1772932653888.2097,-0.1222,-0.0232,-0.9789,0.892,-6.886,-1.076
1772932653888.2097,-0.12,-0.022,-0.9792,0.499,-7.499,-1.409
1772932653903.7673,-0.118,-0.0145,-0.9758,0.333,-8.033,-1.575
1772932653903.7673,-0.118,-0.0109,-0.9722,0.674,-8.146,-1.444
1772932653903.7673,-0.1133,-0.0071,-0.9689,0.656,-8.164,-1.706
1772932653903.7673,-0.1136,-0.0016,-0.964,1.067,-8.041,-1.356
1772932653919.8381,-0.1151,0.0016,-0.9627,1.452,-7.367,-1.873
1772932653919.8381,-0.1154,0.0064,-0.9614,1.82,-7.192,-2.056
1772932653919.8381,-0.1174,0.0123,-0.9616,2.354,-6.536,-1.82
1772932653919.8381,-0.1164,0.0158,-0.9643,2.914,-6.492,-1.96
1772932653919.8381,-0.1175,0.014,-0.9679,3.544,-6.02,-1.864
1772932653935.7139,-0.1213,0.0127,-0.9697,3.964,-5.688,-1.829
1772932653935.7139,-0.1277,0.011,-0.9704,4.305,-4.926,-1.96
1772932653935.7139,-0.1276,0.0076,-0.9717,4.366,-4.734,-1.689
1772932653935.7139,-0.1291,0.0035,-0.9718,4.41,-4.673,-1.627
1772932653951.2786,-0.1307,0.0004,-0.972,4.463,-4.673,-1.627
1772932653951.2786,-0.1295,-0.0048,-0.9713,4.314,-4.769,-1.715
1772932653951.2786,-0.1299,-0.0036,-0.9688,3.955,-4.541,-1.479
1772932653951.2786,-0.128,-0.0071,-0.9684,3.692,-4.331,-1.356
1772932653967.875,-0.1255,-0.0082,-0.969,3.692,-3.911,-1.593
1772932653967.875,-0.1252,-0.0071,-0.9713,3.456,-3.885,-1.479
1772932653967.875,-0.1222,-0.0069,-0.9706,3.089,-4.043,-1.593
1772932653983.6047,-0.1196,-0.0059,-0.9729,3.115,-3.999,-1.444
1772932653983.6047,-0.1185,-0.007,-0.9736,3.132,-4.559,-1.488
1772932653983.6047,-0.1188,-0.0037,-0.9758,2.993,-4.445,-1.26
1772932653983.6047,-0.1216,-0.0031,-0.9721,2.73,-4.611,-1.12
1772932653983.6047,-0.1225,-0.0061,-0.9725,2.459,-4.865,-1.181
1772932653998.7893,-0.1215,-0.006,-0.9726,2.791,-5.189,-1.26
1772932653998.7893,-0.1228,-0.0063,-0.9717,2.467,-4.926,-1.041
1772932653998.7893,-0.125,-0.0077,-0.9719,2.24,-4.664,-0.805
1772932653998.7893,-0.1276,-0.0099,-0.9677,2.441,-4.69,-1.024
1772932654013.848,-0.13,-0.0096,-0.9681,2.319,-4.567,-0.989
1772932654013.848,-0.1328,-0.0107,-0.9675,2.004,-4.375,-0.796
1772932654013.848,-0.1327,-0.0098,-0.9684,1.934,-4.209,-1.103
1772932654013.848,-0.1329,-0.0098,-0.9672,1.986,-3.929,-1.094
1772932654028.6367,-0.1343,-0.0079,-0.9672,2.039,-3.885,-1.488
1772932654028.6367,-0.1344,-0.0059,-0.9681,1.864,-3.089,-1.4
1772932654028.6367,-0.1336,-0.0049,-0.9705,2.013,-3.491,-1.698
1772932654044.2932,-0.1312,-0.0054,-0.9723,2.021,-3.465,-1.549
1772932654044.2932,-0.1291,-0.0047,-0.9767,2.24,-3.596,-1.802
1772932654044.2932,-0.1267,-0.0041,-0.9794,2.319,-3.938,-1.732
1772932654044.2932,-0.1249,-0.0057,-0.9817,2.433,-4.673,-1.619
1772932654059.6633,-0.1239,-0.0068,-0.9786,2.712,-5.058,-1.409
1772932654059.6633,-0.1211,-0.0079,-0.9753,2.931,-5.425,-1.531
1772932654059.6633,-0.1196,-0.0099,-0.9735,2.922,-5.539,-1.374
1772932654059.6633,-0.1243,-0.0076,-0.969,2.879,-5.513,-1.452
1772932654075.0122,-0.1259,-0.0081,-0.9688,2.958,-5.486,-1.321
1772932654075.0122,-0.1247,-0.0097,-0.9661,3.019,-5.329,-1.278
1772932654075.0122,-0.1269,-0.0082,-0.9661,3.054,-5.241,-1.356
1772932654075.0122,-0.1267,-0.0078,-0.9701,3.124,-4.987,-1.216
1772932654075.0122,-0.1282,-0.009,-0.9744,2.888,-5.128,-1.356
1772932654091.637,-0.1289,-0.0063,-0.9737,2.756,-4.83,-1.549
1772932654091.637,-0.1314,-0.0088,-0.9774,3.08,-4.83,-1.531
1772932654091.637,-0.129,-0.0077,-0.9765,2.87,-5.162,-1.347
1772932654091.637,-0.1293,-0.0041,-0.9803,2.966,-5.162,-1.522
1772932654107.4553,-0.1283,-0.0017,-0.981,3.264,-5.407,-1.584
1772932654107.4553,-0.1285,-0.0009,-0.9819,3.272,-5.416,-1.522
1772932654107.4553,-0.126,-0.0016,-0.9809,3.631,-5.652,-1.663
1772932654107.4553,-0.1257,-0.0019,-0.9833,3.64,-5.679,-1.54
1772932654123.077,-0.1252,-0.0037,-0.979,4.069,-5.749,-1.321
1772932654123.077,-0.1233,-0.0035,-0.9792,3.894,-5.696,-1.312
1772932654123.077,-0.126,-0.0062,-0.9787,3.885,-5.521,-1.286
1772932654138.6458,-0.1235,-0.0063,-0.9764,4.112,-5.941,-1.295
1772932654138.6458,-0.1236,-0.0107,-0.978,4.235,-5.548,-1.242
1772932654138.6458,-0.1224,-0.0115,-0.9762,3.902,-5.644,-1.269
1772932654138.6458,-0.1244,-0.0133,-0.9737,3.719,-5.679,-1.26
1772932654154.8452,-0.1251,-0.0118,-0.9753,3.5,-6.003,-1.278
1772932654154.8452,-0.1238,-0.0114,-0.9732,3.272,-5.985,-1.006
1772932654154.8452,-0.1249,-0.0061,-0.9707,3.132,-5.827,-0.849
1772932654154.8452,-0.1235,-0.0057,-0.9733,2.949,-5.644,-1.085
1772932654154.8452,-0.1256,-0.0042,-0.9678,2.826,-5.897,-1.295
1772932654169.6582,-0.1223,-0.0017,-0.972,2.748,-5.591,-1.365
1772932654169.6582,-0.1244,-0.0014,-0.9673,2.59,-5.434,-1.33
1772932654169.6582,-0.1232,0.0002,-0.9655,2.704,-5.399,-1.452
1772932654169.6582,-0.1192,-0.0023,-0.9659,2.546,-5.066,-1.435
1772932654185.7346,-0.1186,0.0022,-0.9667,2.695,-4.865,-1.417
1772932654185.7346,-0.1213,0.0004,-0.9675,2.748,-5.022,-1.383
1772932654185.7346,-0.1209,-0.0004,-0.9684,2.739,-4.699,-1.312
1772932654185.7346,-0.1181,-0.0004,-0.9674,2.748,-4.699,-1.129
1772932654201.2117,-0.1201,-0.0053,-0.9675,2.879,-4.532,-0.989
1772932654201.2117,-0.123,-0.0026,-0.967,2.669,-4.62,-1.339
1772932654201.2117,-0.1205,-0.0046,-0.9649,2.502,-4.025,-1.33
1772932654216.3472,-0.1209,-0.0034,-0.9661,2.931,-4.463,-1.374
1772932654216.3472,-0.122,-0.0026,-0.9647,2.94,-4.331,-1.111
1772932654216.3472,-0.1252,-0.0023,-0.9659,2.783,-3.859,-1.015
1772932654216.3472,-0.1236,-0.004,-0.9622,3.159,-3.509,-1.242
1772932654231.726,-0.1255,-0.0049,-0.9633,2.931,-3.833,-1.164
1772932654231.726,-0.1247,-0.005,-0.9601,2.844,-3.719,-1.015
1772932654231.726,-0.1255,-0.0055,-0.9626,2.695,-3.439,-1.041
1772932654231.726,-0.1232,-0.0067,-0.9601,2.712,-3.027,-1.129
1772932654231.726,-0.1233,-0.0044,-0.9639,2.336,-2.888,-1.251
1772932654247.6174,-0.124,-0.003,-0.9637,2.214,-2.809,-1.111
1772932654247.6174,-0.1236,-0.003,-0.9683,2.336,-2.914,-1.304
1772932654247.6174,-0.1229,-0.0016,-0.9713,2.284,-2.975,-1.347
1772932654247.6174,-0.1224,-0.0018,-0.9743,2.406,-2.905,-1.304
1772932654263.235,-0.1218,-0.0017,-0.9756,2.52,-2.966,-1.514
1772932654263.235,-0.123,-0.0026,-0.9787,3.027,-3.115,-1.759
1772932654263.235,-0.1222,-0.0024,-0.98,2.94,-3.482,-1.741
1772932654263.235,-0.122,-0.0049,-0.9767,3.054,-3.736,-1.627
1772932654279.5698,-0.123,-0.0079,-0.9797,3.08,-3.701,-1.549
1772932654279.5698,-0.1234,-0.0085,-0.9795,3.299,-4.034,-1.601
1772932654279.5698,-0.1244,-0.0093,-0.9789,2.905,-4.077,-1.575
1772932654279.5698,-0.1203,-0.0107,-0.9811,2.984,-4.165,-1.374
1772932654294.5989,-0.1233,-0.0116,-0.9782,2.756,-3.894,-1.251
1772932654294.5989,-0.1227,-0.0131,-0.9748,2.748,-4.41,-1.558
1772932654294.5989,-0.1233,-0.0147,-0.9734,2.748,-4.375,-1.522
1772932654310.6663,-0.124,-0.0135,-0.9745,2.459,-4.314,-1.19
1772932654310.6663,-0.1231,-0.0138,-0.972,2.161,-4.069,-1.199
1772932654310.6663,-0.1208,-0.0126,-0.9748,1.951,-3.964,-1.278
1772932654310.6663,-0.1214,-0.0109,-0.9711,2.091,-3.885,-1.234
1772932654326.2666,-0.1225,-0.0088,-0.9682,2.083,-4.008,-1.391
1772932654326.2666,-0.1218,-0.0075,-0.9697,2.021,-3.71,-1.409
1772932654326.2666,-0.1211,-0.0032,-0.9679,2.074,-3.237,-1.146
1772932654326.2666,-0.1235,-0.0034,-0.9666,2.415,-3.474,-1.356
1772932654326.2666,-0.1211,-0.0032,-0.9679,2.502,-3.027,-0.998
1772932654342.0186,-0.1217,-0.0007,-0.9672,2.354,-2.853,-1.208
1772932654342.0186,-0.1213,-0.0026,-0.9691,2.896,-3.036,-1.312
1772932654342.0186,-0.1228,-0.0001,-0.9659,2.853,-2.966,-1.426
1772932654342.0186,-0.1238,-0.0025,-0.9667,2.817,-2.748,-1.032
1772932654357.6914,-0.1236,-0.0045,-0.965,2.922,-2.783,-1.199
1772932654357.6914,-0.1203,-0.0049,-0.967,2.905,-2.765,-1.295
1772932654357.6914,-0.1202,-0.0056,-0.9712,3.141,-2.581,-1.304
1772932654357.6914,-0.1178,-0.0051,-0.969,2.826,-2.712,-1.094
1772932654373.278,-0.1182,-0.0068,-0.9701,3.132,-2.59,-1.26
1772932654373.278,-0.117,-0.0068,-0.9698,3.159,-3.054,-1.278
1772932654373.278,-0.116,-0.0076,-0.9709,2.984,-2.975,-1.251
1772932654388.59,-0.1155,-0.0065,-0.9696,2.888,-2.975,-1.304
1772932654388.59,-0.1161,-0.0077,-0.9672,2.922,-2.914,-1.356
1772932654388.59,-0.1161,-0.0041,-0.9676,2.817,-3.08,-1.234
1772932654388.59,-0.1148,-0.0059,-0.9675,2.888,-3.045,-1.085
1772932654404.907,-0.1168,-0.0043,-0.9687,2.931,-2.94,-1.085
1772932654404.907,-0.1146,-0.003,-0.9714,3.045,-2.949,-1.225
1772932654404.907,-0.1139,-0.0013,-0.9715,3.229,-3.098,-1.321
1772932654404.907,-0.1157,-0.0039,-0.9723,3.106,-2.791,-1.251
1772932654404.907,-0.1146,-0.0023,-0.9717,3.229,-3.255,-1.374
1772932654421.0059,-0.1138,-0.0053,-0.974,3.439,-3.255,-1.181
1772932654421.0059,-0.1148,-0.0046,-0.9743,3.316,-3.421,-1.137
1772932654421.0059,-0.1166,-0.0029,-0.9755,3.447,-3.106,-1.295
1772932654421.0059,-0.1171,-0.0056,-0.9726,3.474,-3.43,-1.566
1772932654436.3474,-0.1166,-0.0065,-0.9733,3.692,-3.264,-1.269
1772932654436.3474,-0.1138,-0.0061,-0.976,3.482,-3.456,-1.435
1772932654436.3474,-0.113,-0.004,-0.9749,3.421,-3.482,-1.286
1772932654436.3474,-0.1166,-0.0051,-0.9753,3.237,-3.229,-1.312
1772932654451.9216,-0.1179,-0.007,-0.9733,3.141,-3.176,-1.347
1772932654451.9216,-0.1144,-0.0041,-0.9738,3.237,-3.465,-1.4
1772932654451.9216,-0.113,-0.0053,-0.9725,3.386,-3.386,-1.295
1772932654451.9216,-0.1136,-0.0034,-0.9735,3.229,-3.203,-1.199
1772932654467.6587,-0.1135,-0.0049,-0.9714,2.984,-2.949,-1.225
1772932654467.6587,-0.1139,-0.0043,-0.9744,3.089,-3.404,-1.356
1772932654467.6587,-0.1143,-0.0054,-0.9765,3.001,-3.115,-1.339
1772932654482.4133,-0.1163,-0.0073,-0.9757,2.984,-3.351,-1.365
1772932654482.4133,-0.1134,-0.0056,-0.9751,3.045,-3.272,-1.137
1772932654482.4133,-0.1141,-0.0049,-0.9734,2.879,-3.071,-1.505
1772932654482.4133,-0.1151,-0.0035,-0.9729,3.255,-3.159,-1.094
1772932654482.4133,-0.1154,-0.0049,-0.973,3.01,-3.071,-1.391
1772932654497.8032,-0.1168,-0.0035,-0.9729,3.159,-2.914,-0.963
1772932654497.8032,-0.1141,-0.0035,-0.9764,3.036,-2.835,-1.4
1772932654497.8032,-0.114,-0.0036,-0.9725,3.08,-3.062,-1.409
1772932654497.8032,-0.1139,-0.0044,-0.9739,3.106,-2.931,-1.295
1772932654513.8896,-0.1131,-0.0045,-0.9733,3.15,-2.896,-1.33
1772932654513.8896,-0.1129,-0.0035,-0.9717,2.87,-2.765,-1.383
1772932654513.8896,-0.1143,-0.0043,-0.9736,3.194,-2.52,-1.409
1772932654513.8896,-0.112,-0.0065,-0.9753,3.045,-2.415,-1.242
1772932654529.162,-0.1105,-0.005,-0.9746,3.106,-2.38,-1.426
1772932654529.162,-0.111,-0.0081,-0.9755,3.036,-2.354,-1.295
1772932654529.162,-0.1133,-0.008,-0.9773,2.993,-2.581,-1.426
1772932654529.162,-0.1118,-0.0079,-0.9773,3.281,-2.511,-1.347
1772932654544.639,-0.1113,-0.0059,-0.9798,3.01,-2.38,-1.12
1772932654544.639,-0.1114,-0.0068,-0.9812,3.019,-2.931,-1.129
1772932654544.639,-0.1105,-0.0069,-0.9828,3.185,-3.246,-1.103
1772932654560.6973,-0.1094,-0.0068,-0.9839,2.817,-3.465,-1.251
1772932654560.6973,-0.1088,-0.0044,-0.9856,3.29,-3.684,-1.286
1772932654560.6973,-0.1064,-0.0047,-0.984,3.167,-4.156,-1.4
1772932654560.6973,-0.1063,-0.0046,-0.9812,3.062,-4.261,-1.26
1772932654576.8037,-0.1071,-0.0047,-0.982,3.264,-4.393,-1.488
1772932654576.8037,-0.1088,-0.007,-0.9778,3.299,-4.34,-1.278
1772932654576.8037,-0.1075,-0.0071,-0.9756,3.089,-4.287,-1.383
1772932654576.8037,-0.1103,-0.0064,-0.9731,3.194,-4.174,-1.234
1772932654576.8037,-0.1111,-0.0068,-0.9706,3.211,-4.095,-1.111
1772932654592.3718,-0.1114,-0.007,-0.971,3.237,-3.815,-1.103
1772932654592.3718,-0.1122,-0.0076,-0.9679,3.124,-3.299,-1.278
1772932654592.3718,-0.1124,-0.0065,-0.9667,3.176,-3.106,-1.251
1772932654592.3718,-0.1104,-0.0059,-0.966,3.036,-2.879,-1.208
1772932654608.4324,-0.1118,-0.006,-0.9649,3.229,-2.38,-1.085
1772932654608.4324,-0.1128,-0.0069,-0.9667,2.896,-2.555,-1.339
1772932654608.4324,-0.1143,-0.0077,-0.9681,2.791,-2.152,-1.417
1772932654608.4324,-0.1085,-0.0065,-0.9689,2.879,-2.065,-1.304
1772932654624.0344,-0.1108,-0.0042,-0.9745,2.686,-1.907,-1.601
1772932654624.0344,-0.1094,-0.0036,-0.9805,2.783,-2.109,-1.452
1772932654624.0344,-0.1099,-0.0026,-0.9884,2.984,-2.319,-1.671
1772932654624.0344,-0.1077,-0.002,-0.9943,3.272,-2.94,-1.365
1772932654624.0344,-0.1085,-0.0012,-0.999,3.474,-3.771,-1.61
1772932654639.6821,-0.1098,-0.0023,-1.0022,3.806,-5.119,-1.732
1772932654639.6821,-0.1088,-0.0016,-1.0027,4.34,-6.239,-1.899
1772932654654.8315,-0.1061,-0.0031,-0.9999,4.707,-6.799,-1.96
1772932654654.8315,-0.1043,-0.0046,-0.9917,5.101,-7.42,-1.601
1772932654654.8315,-0.1042,-0.0075,-0.9821,5.346,-7.901,-1.689
1772932654654.8315,-0.1047,-0.0093,-0.9751,5.355,-7.586,-1.663
1772932654654.8315,-0.1035,-0.0138,-0.9668,4.952,-7.175,-1.663
1772932654670.6807,-0.1031,-0.017,-0.9602,4.016,-6.186,-1.584
1772932654670.6807,-0.1014,-0.0171,-0.9559,3.071,-5.005,-1.12
1772932654670.6807,-0.1023,-0.0173,-0.9537,2.03,-4.244,-1.26
1772932654670.6807,-0.0977,-0.0185,-0.9509,1.024,-2.888,-1.076
1772932654686.2544,-0.0992,-0.0196,-0.9503,0.446,-1.864,-0.945
1772932654686.2544,-0.1003,-0.0184,-0.9548,0.271,-1.041,-0.989
1772932654686.2544,-0.1016,-0.0158,-0.9653,0.98,-0.446,-0.569
1772932654686.2544,-0.0989,-0.0127,-0.9882,1.837,-0.613,-0.569
1772932654701.803,-0.1006,-0.0146,-1.0005,3.299,-1.558,-0.376
1772932654701.803,-0.1016,-0.0141,-1.0058,4.48,-2.853,-0.219
1772932654701.803,-0.1051,-0.0152,-0.9989,5.626,-4.244,0.131
1772932654701.803,-0.1056,-0.0207,-0.9866,6.011,-4.952,0.263
1772932654701.803,-0.108,-0.0269,-0.9687,6.178,-4.839,0.963
1772932654717.7568,-0.1116,-0.0287,-0.9504,5.609,-3.876,1.391
1772932654717.7568,-0.1112,-0.0284,-0.9442,5.294,-2.328,1.837
1772932654733.8345,-0.1115,-0.0246,-0.9486,4.926,-1.33,1.881
1772932654733.8345,-0.1089,-0.0199,-0.9611,4.751,-0.21,1.89
1772932654733.8345,-0.1091,-0.0155,-0.9748,4.611,0.429,1.846
1772932654733.8345,-0.1083,-0.008,-0.9833,4.156,0.752,1.365
1772932654733.8345,-0.1112,-0.0018,-0.9927,3.78,1.12,1.146
1772932654749.074,-0.1154,0.0009,-0.9925,3.01,1.837,0.455
1772932654749.074,-0.1193,0.0051,-0.9783,2.616,2.993,0.166
1772932654749.074,-0.1193,0.0125,-0.9706,1.627,4.209,-0.07
1772932654749.074,-0.1211,0.0157,-0.9635,1.155,5.276,-0.621
1772932654764.1724,-0.1158,0.0178,-0.961,1.041,6.178,-0.998
1772932654764.1724,-0.1137,0.0154,-0.9597,1.067,6.204,-1.094
1772932654764.1724,-0.1124,0.0129,-0.9573,1.391,5.644,-1.312
1772932654764.1724,-0.1093,0.0081,-0.9586,1.82,4.716,-1.663
1772932654764.1724,-0.1078,0.0069,-0.9575,1.698,3.089,-1.365
1772932654781.335,-0.1036,0.0001,-0.9582,1.916,2.196,-1.531
1772932654781.335,-0.0998,-0.0059,-0.9626,1.864,0.963,-1.137
1772932654781.335,-0.0985,-0.0084,-0.9683,1.724,-0.341,-0.971
1772932654781.335,-0.0939,-0.0138,-0.9755,1.689,-1.155,-0.77
1772932654797.8884,-0.0952,-0.0178,-0.9814,1.899,-2.292,-0.481
1772932654797.8884,-0.0911,-0.0187,-0.984,2.205,-3.369,-0.709
1772932654797.8884,-0.0887,-0.0181,-0.9842,2.1,-3.868,-0.7
1772932654797.8884,-0.0882,-0.0188,-0.9859,2.091,-4.55,-0.718
1772932654812.9553,-0.0853,-0.0143,-0.9837,2.214,-4.996,-0.831
1772932654812.9553,-0.0885,-0.011,-0.9845,2.415,-5.451,-1.015
1772932654812.9553,-0.0844,-0.0096,-0.9861,2.467,-5.539,-1.199
1772932654812.9553,-0.0827,-0.0034,-0.987,2.721,-5.617,-1.269
1772932654812.9553,-0.0844,0.0003,-0.9856,2.888,-5.11,-1.374
1772932654829.384,-0.0872,0.0047,-0.9892,3.089,-5.294,-1.417
1772932654829.384,-0.0857,0.0068,-0.9843,3.132,-4.856,-1.514
1772932654829.384,-0.0872,0.0071,-0.9832,3.027,-5.049,-1.4
1772932654829.384,-0.0885,0.0085,-0.9795,3.027,-4.97,-1.522
1772932654845.129,-0.0927,0.0071,-0.9762,3.045,-4.655,-1.269
1772932654845.129,-0.0946,0.0066,-0.9725,2.8,-4.112,-1.356
1772932654845.129,-0.096,0.0043,-0.9715,2.669,-3.649,-1.129
1772932654860.6558,-0.0976,0.003,-0.9689,2.599,-2.896,-1.05
1772932654860.6558,-0.0985,0.0018,-0.9701,2.791,-2.485,-0.744
1772932654860.6558,-0.0961,0.0024,-0.9717,3.001,-1.881,-0.814
1772932654860.6558,-0.0953,0.0021,-0.9722,2.879,-2.161,-0.936
1772932654876.2625,-0.095,-0.0002,-0.9726,3.22,-2.188,-1.085
1772932654876.2625,-0.0939,-0.0026,-0.9753,3.36,-2.17,-1.374
1772932654876.2625,-0.0879,-0.004,-0.9745,3.281,-2.354,-1.514
1772932654876.2625,-0.0892,-0.0065,-0.9731,3.316,-2.467,-1.374
1772932654876.2625,-0.0866,-0.0062,-0.9719,3.299,-2.511,-1.383
1772932654891.324,-0.087,-0.0082,-0.9722,3.43,-2.73,-1.33
1772932654891.324,-0.0875,-0.0094,-0.9699,3.194,-2.494,-1.374
1772932654891.324,-0.087,-0.0088,-0.97,3.15,-2.494,-1.391
1772932654891.324,-0.0904,-0.0091,-0.9654,3.054,-2.275,-1.304
1772932654907.6997,-0.091,-0.0082,-0.9667,2.87,-1.969,-1.076
1772932654907.6997,-0.0936,-0.0109,-0.9679,3.071,-1.391,-0.945
1772932654907.6997,-0.0965,-0.0065,-0.9675,2.861,-1.426,-1.015
1772932654907.6997,-0.0948,-0.0081,-0.97,2.651,-0.831,-1.032
1772932654923.2512,-0.0954,-0.0084,-0.969,2.739,-0.744,-1.234
1772932654923.2512,-0.098,-0.0087,-0.972,2.564,-0.542,-1.339
1772932654923.2512,-0.0986,-0.0092,-0.9738,2.607,-0.105,-1.339
1772932654938.8235,-0.0988,-0.0065,-0.9756,2.572,-0.324,-1.671
1772932654938.8235,-0.0981,-0.0062,-0.9786,2.546,-0.306,-1.531
1772932654938.8235,-0.0964,-0.0038,-0.9819,2.678,-0.455,-1.47
1772932654938.8235,-0.0942,-0.007,-0.9864,2.888,-0.858,-1.759
1772932654954.473,-0.095,-0.0035,-0.9867,2.905,-1.33,-1.663
1772932654954.473,-0.0909,-0.0039,-0.9887,3.106,-1.899,-1.558
1772932654954.473,-0.0902,-0.0035,-0.9925,3.482,-2.625,-1.531
1772932654954.473,-0.0872,-0.0029,-0.99,3.623,-3.01,-1.706
1772932654954.473,-0.0881,-0.003,-0.9841,3.623,-3.281,-1.864
1772932654969.7444,-0.0864,-0.0059,-0.9848,3.885,-3.544,-1.689
1772932654969.7444,-0.0842,-0.004,-0.9822,3.859,-3.806,-1.461
1772932654969.7444,-0.0876,-0.0056,-0.9824,3.587,-4.121,-1.61
1772932654969.7444,-0.087,-0.0063,-0.9823,3.526,-4.016,-1.522
1772932654985.573,-0.086,-0.0076,-0.9829,3.491,-3.999,-1.619
1772932654985.573,-0.0876,-0.0094,-0.9842,3.413,-4.253,-1.558
1772932654985.573,-0.0855,-0.009,-0.9833,3.203,-3.868,-1.531
1772932654985.573,-0.0863,-0.0102,-0.9834,2.922,-3.876,-1.531
1772932655001.636,-0.0858,-0.0102,-0.9832,2.835,-4.086,-1.505
1772932655001.636,-0.0879,-0.0094,-0.9826,2.669,-4.025,-1.794
1772932655001.636,-0.0886,-0.0071,-0.9813,2.826,-4.043,-1.645
1772932655001.636,-0.0875,-0.0058,-0.9824,2.634,-3.806,-1.759
1772932655017.736,-0.0886,-0.004,-0.9804,2.712,-3.377,-1.531
1772932655017.736,-0.0916,-0.0038,-0.9799,2.616,-3.491,-1.873
1772932655017.736,-0.0903,-0.003,-0.9797,2.686,-3.308,-1.881
1772932655032.6196,-0.09,-0.004,-0.975,2.712,-2.966,-1.759
1772932655032.6196,-0.0901,-0.0027,-0.9784,3.089,-3.098,-1.741
1772932655032.6196,-0.086,-0.0015,-0.98,3.132,-3.185,-1.698
1772932655032.6196,-0.0871,-0.005,-0.9779,3.579,-3.377,-1.706
1772932655048.6995,-0.0867,-0.004,-0.9778,3.509,-3.299,-1.505
1772932655048.6995,-0.0861,-0.0094,-0.9773,3.509,-3.649,-1.391
1772932655048.6995,-0.0845,-0.0102,-0.9788,3.71,-3.649,-1.566
1772932655048.6995,-0.0842,-0.0108,-0.9775,3.71,-3.911,-1.479
1772932655048.6995,-0.0834,-0.0078,-0.9797,3.894,-3.911,-1.575
1772932655063.746,-0.083,-0.0115,-0.982,4.025,-4.463,-1.47
1772932655063.746,-0.0826,-0.0138,-0.9834,3.894,-4.48,-1.312
1772932655063.746,-0.0846,-0.0106,-0.9837,3.973,-4.926,-1.312
1772932655063.746,-0.0802,-0.0102,-0.9825,3.938,-5.075,-1.19
1772932655079.359,-0.0815,-0.0087,-0.9819,3.981,-5.478,-1.435
1772932655079.359,-0.0806,-0.0081,-0.981,3.981,-5.469,-1.531
1772932655079.359,-0.08,-0.0088,-0.9828,3.605,-5.906,-1.435
1772932655079.359,-0.0814,-0.0059,-0.9819,4.016,-5.521,-1.54
1772932655094.5144,-0.0803,-0.0043,-0.9826,3.736,-5.897,-1.304
1772932655094.5144,-0.0788,-0.0038,-0.9843,3.71,-5.906,-1.208
1772932655094.5144,-0.0822,-0.0054,-0.9821,3.675,-5.862,-1.654
1772932655109.8276,-0.0811,-0.0038,-0.9803,3.447,-6.046,-1.496
1772932655109.8276,-0.0805,-0.0037,-0.9812,3.544,-5.95,-1.522
1772932655109.8276,-0.0809,-0.0048,-0.9781,3.614,-5.854,-1.295
1772932655109.8276,-0.0831,-0.0032,-0.9773,3.404,-5.968,-1.111
1772932655125.5715,-0.0838,-0.0049,-0.9781,3.535,-5.67,-1.137
1772932655125.5715,-0.0812,-0.0048,-0.9789,3.701,-5.67,-1.356
1772932655125.5715,-0.0831,-0.0052,-0.9788,3.797,-5.6,-1.19
1772932655125.5715,-0.0814,-0.0054,-0.9776,3.815,-5.478,-1.496
1772932655125.5715,-0.0829,-0.0076,-0.978,3.911,-5.364,-1.452
1772932655141.7336,-0.0839,-0.006,-0.9758,3.85,-5.049,-1.321
1772932655141.7336,-0.0852,-0.0067,-0.9725,3.675,-4.839,-1.505
1772932655141.7336,-0.0869,-0.0085,-0.973,3.5,-4.428,-1.295
1772932655141.7336,-0.0888,-0.0078,-0.9714,3.535,-4.331,-1.558
1772932655157.4407,-0.0852,-0.0081,-0.9724,3.29,-4.13,-1.706
1772932655157.4407,-0.0895,-0.009,-0.9744,3.299,-3.876,-1.654
1772932655157.4407,-0.0871,-0.0095,-0.9753,3.439,-3.535,-1.671
1772932655157.4407,-0.0867,-0.0066,-0.9773,3.465,-3.526,-1.671
1772932655172.9866,-0.086,-0.0106,-0.9765,3.482,-3.973,-1.706
1772932655172.9866,-0.0841,-0.0064,-0.9843,3.614,-3.692,-1.89
1772932655172.9866,-0.0863,-0.009,-0.9817,3.771,-3.806,-1.811
1772932655188.787,-0.0858,-0.0086,-0.9819,3.701,-4.06,-1.75
1772932655188.787,-0.0835,-0.0109,-0.9844,3.623,-4.235,-1.837
1772932655188.787,-0.0844,-0.0106,-0.9848,3.815,-4.366,-1.768
1772932655188.787,-0.0859,-0.0117,-0.9857,3.911,-4.541,-1.627
1772932655204.343,-0.0858,-0.0106,-0.9843,3.815,-4.804,-2.126
1772932655204.343,-0.0848,-0.0118,-0.9831,3.894,-4.707,-1.698
1772932655204.343,-0.0842,-0.0132,-0.9844,3.981,-4.935,-1.785
1772932655204.343,-0.0831,-0.0121,-0.983,3.894,-4.734,-1.759
1772932655204.343,-0.0825,-0.0134,-0.9819,3.815,-5.075,-1.61
1772932655219.5498,-0.0816,-0.0137,-0.9819,3.728,-4.97,-1.68
1772932655219.5498,-0.0817,-0.0152,-0.9762,3.71,-4.891,-1.759
1772932655219.5498,-0.0831,-0.0142,-0.978,3.771,-5.232,-1.636
1772932655219.5498,-0.084,-0.0125,-0.9783,3.85,-4.707,-1.593
1772932655235.5793,-0.0836,-0.0134,-0.9736,4.016,-4.961,-1.514
1772932655235.5793,-0.0864,-0.0118,-0.9734,3.806,-4.349,-1.531
1772932655235.5793,-0.0823,-0.0104,-0.9739,4.253,-4.279,-1.663
1772932655235.5793,-0.0866,-0.0087,-0.9737,3.938,-4.077,-1.522
1772932655251.0798,-0.0881,-0.0083,-0.9695,4.13,-3.876,-1.426
1772932655251.0798,-0.0868,-0.008,-0.9705,4.165,-3.894,-1.505
1772932655251.0798,-0.0865,-0.0084,-0.969,4.253,-3.439,-1.566
1772932655266.3474,-0.0855,-0.0087,-0.9684,4.209,-3.115,-1.549
1772932655266.3474,-0.0834,-0.009,-0.9703,4.121,-2.958,-1.566
1772932655266.3474,-0.0834,-0.0076,-0.9678,3.964,-2.704,-1.566
1772932655266.3474,-0.0844,-0.0076,-0.9689,3.92,-2.73,-1.409
1772932655282.2043,-0.0831,-0.0079,-0.9688,4.2,-2.572,-1.645
1772932655282.2043,-0.0835,-0.0106,-0.9731,4.06,-2.555,-1.89
1772932655282.2043,-0.0828,-0.0097,-0.9712,3.938,-2.572,-1.715
1772932655282.2043,-0.0819,-0.009,-0.9696,3.876,-2.564,-1.663
1772932655297.7766,-0.0808,-0.0096,-0.9739,3.999,-2.555,-1.531
1772932655297.7766,-0.0811,-0.0134,-0.9767,3.78,-2.616,-1.531
1772932655297.7766,-0.0791,-0.0127,-0.9753,3.789,-3.124,-1.304
1772932655297.7766,-0.0794,-0.0134,-0.9784,3.806,-3.167,-1.488
1772932655297.7766,-0.081,-0.0133,-0.9792,3.868,-3.316,-1.409
1772932655313.1616,-0.0807,-0.0143,-0.9794,3.728,-3.544,-1.251
1772932655313.1616,-0.0776,-0.0143,-0.98,3.868,-3.797,-1.417
1772932655313.1616,-0.079,-0.0142,-0.9798,3.763,-3.614,-1.47
1772932655313.1616,-0.0797,-0.012,-0.9778,3.876,-3.579,-1.251
1772932655328.5945,-0.0793,-0.0114,-0.9803,3.719,-4.008,-1.365
1772932655328.5945,-0.0803,-0.0093,-0.9777,3.824,-3.833,-1.295
1772932655328.5945,-0.0794,-0.0079,-0.979,3.553,-3.605,-1.155
1772932655344.0837,-0.0806,-0.0092,-0.9779,3.701,-3.859,-1.286
1772932655344.0837,-0.0798,-0.0104,-0.9772,3.675,-3.999,-1.321
1772932655344.0837,-0.0795,-0.0082,-0.9779,3.623,-3.885,-1.54
1772932655344.0837,-0.0786,-0.0101,-0.9764,3.754,-3.692,-1.409
1772932655359.6753,-0.0799,-0.0098,-0.9764,3.526,-3.815,-1.426
1772932655359.6753,-0.0815,-0.012,-0.9789,3.692,-3.614,-1.479
1772932655359.6753,-0.08,-0.0112,-0.9731,3.456,-3.43,-1.312
1772932655359.6753,-0.077,-0.0117,-0.976,3.553,-3.369,-1.234
1772932655375.1707,-0.0775,-0.0128,-0.9756,3.325,-3.369,-1.383
1772932655375.1707,-0.078,-0.0129,-0.9771,3.299,-3.246,-1.365
1772932655375.1707,-0.0806,-0.0107,-0.9766,3.22,-2.984,-1.365
1772932655375.1707,-0.0782,-0.0134,-0.9756,3.001,-2.94,-1.024
1772932655375.1707,-0.0769,-0.012,-0.9752,2.896,-2.826,-1.374
1772932655391.457,-0.0779,-0.0121,-0.9744,2.888,-3.036,-1.234
1772932655391.457,-0.078,-0.0129,-0.9758,2.975,-2.485,-1.278
1772932655391.457,-0.0772,-0.0121,-0.9736,2.721,-2.914,-1.531
1772932655391.457,-0.0788,-0.0131,-0.9764,2.826,-3.132,-1.33
1772932655407.8545,-0.0768,-0.0117,-0.9764,2.538,-2.529,-1.286
1772932655407.8545,-0.0766,-0.0117,-0.9773,2.669,-2.678,-1.312
1772932655407.8545,-0.0764,-0.0126,-0.9775,2.467,-2.476,-1.137
1772932655407.8545,-0.0772,-0.0127,-0.9771,2.686,-2.774,-1.452
1772932655423.374,-0.0774,-0.0138,-0.9761,2.59,-2.888,-1.409
1772932655423.374,-0.0767,-0.011,-0.9771,2.809,-2.888,-1.356
1772932655423.374,-0.0763,-0.0127,-0.9764,2.38,-2.896,-1.4
1772932655439.5432,-0.0764,-0.0123,-0.9766,2.695,-2.905,-1.269
1772932655439.5432,-0.0747,-0.0107,-0.9776,2.826,-2.914,-1.278
1772932655439.5432,-0.0762,-0.0134,-0.9759,2.538,-2.879,-1.374
1772932655439.5432,-0.0737,-0.0122,-0.98,2.397,-2.756,-1.479
1772932655454.897,-0.0752,-0.011,-0.9787,2.354,-2.966,-1.347
1772932655454.897,-0.0734,-0.0132,-0.982,2.529,-2.87,-1.312
1772932655454.897,-0.072,-0.0102,-0.9791,2.502,-2.922,-1.19
1772932655454.897,-0.0739,-0.0118,-0.9811,2.581,-3.027,-1.505
1772932655454.897,-0.072,-0.0104,-0.9817,2.538,-3.22,-1.479
1772932655471.4546,-0.0737,-0.011,-0.9823,2.467,-3.43,-1.663
1772932655471.4546,-0.0759,-0.0113,-0.9831,2.572,-3.439,-1.33
1772932655471.4546,-0.0728,-0.0115,-0.9812,2.695,-3.482,-1.522
1772932655471.4546,-0.0733,-0.0096,-0.9854,2.721,-3.841,-1.461
1772932655487.5024,-0.0732,-0.0124,-0.9852,2.826,-3.763,-1.444
1772932655487.5024,-0.0728,-0.0111,-0.9828,2.975,-4.13,-1.558
1772932655487.5024,-0.0705,-0.0135,-0.9862,2.686,-3.946,-1.785
1772932655487.5024,-0.0715,-0.014,-0.9868,2.861,-4.279,-1.671
1772932655503.5786,-0.0714,-0.014,-0.9832,2.783,-4.48,-1.549
1772932655503.5786,-0.0717,-0.0122,-0.9868,2.861,-4.681,-1.54
1772932655503.5786,-0.0708,-0.013,-0.9862,2.931,-4.664,-1.768
1772932655503.5786,-0.0728,-0.0143,-0.9834,2.678,-4.821,-1.452
1772932655518.8564,-0.0716,-0.0117,-0.9827,2.817,-4.716,-1.496
1772932655518.8564,-0.0717,-0.0128,-0.9822,2.888,-5.101,-1.181
1772932655518.8564,-0.0721,-0.0115,-0.9806,2.888,-4.725,-1.295
1772932655518.8564,-0.0728,-0.0127,-0.9822,2.791,-4.804,-1.26
1772932655518.8564,-0.0714,-0.0126,-0.9777,2.844,-5.171,-1.54
1772932655534.8872,-0.0714,-0.0116,-0.982,2.844,-4.848,-1.321
1772932655534.8872,-0.0705,-0.0116,-0.9803,3.08,-4.795,-1.391
1772932655534.8872,-0.0716,-0.0103,-0.979,3.194,-5.031,-1.19
1772932655534.8872,-0.0716,-0.0126,-0.9814,3.089,-5.075,-1.383
1772932655550.6653,-0.0717,-0.009,-0.9748,3.185,-4.83,-1.409
1772932655550.6653,-0.0733,-0.0101,-0.9792,3.115,-4.751,-1.409
1772932655550.6653,-0.0715,-0.0113,-0.9792,3.106,-4.883,-1.514
1772932655565.7988,-0.0724,-0.0096,-0.978,2.94,-4.559,-1.251
1772932655565.7988,-0.0725,-0.0095,-0.9798,3.08,-4.716,-1.452
1772932655565.7988,-0.0703,-0.0092,-0.9788,3.045,-4.559,-1.549
1772932655565.7988,-0.072,-0.0075,-0.9814,3.141,-4.393,-1.374
1772932655580.8516,-0.0689,-0.0082,-0.9816,3.264,-4.795,-1.645
1772932655580.8516,-0.0703,-0.0104,-0.981,3.203,-4.935,-1.199
1772932655580.8516,-0.0699,-0.0103,-0.9806,3.071,-5.232,-1.33
1772932655580.8516,-0.0705,-0.0082,-0.9793,3.132,-5.093,-1.488
1772932655596.868,-0.0705,-0.0107,-0.9793,3.132,-4.9,-1.593
1772932655596.868,-0.0706,-0.0121,-0.9791,3.281,-4.97,-1.461
1772932655596.868,-0.0725,-0.0108,-0.9756,3.08,-4.996,-1.47
1772932655596.868,-0.0712,-0.0118,-0.9744,3.334,-4.76,-1.435
1772932655596.868,-0.0727,-0.0102,-0.9747,3.229,-4.979,-1.391
1772932655612.98,-0.0708,-0.0114,-0.9771,3.054,-4.839,-1.409
1772932655612.98,-0.0694,-0.0143,-0.9776,3.15,-4.436,-1.54
1772932655612.98,-0.0706,-0.0137,-0.9749,3.036,-4.287,-1.61
1772932655612.98,-0.0695,-0.0134,-0.9764,2.905,-4.06,-1.496
1772932655629.4614,-0.0719,-0.0121,-0.9782,2.634,-4.261,-1.732
1772932655629.4614,-0.0733,-0.012,-0.9808,2.774,-4.261,-1.593
1772932655629.4614,-0.0713,-0.0119,-0.9837,2.511,-4.279,-1.627
1772932655629.4614,-0.0725,-0.0117,-0.9855,2.572,-4.629,-1.706
1772932655645.0498,-0.0728,-0.0129,-0.9858,2.739,-4.716,-1.584
1772932655645.0498,-0.0717,-0.0123,-0.9839,2.686,-4.734,-1.61
1772932655645.0498,-0.0712,-0.0106,-0.9958,2.914,-5.197,-1.558
1772932655660.8577,-0.072,-0.0081,-0.9999,3.098,-5.705,-1.601
1772932655660.8577,-0.0696,-0.0071,-1.0019,3.386,-7.122,-1.855
1772932655660.8577,-0.067,-0.0049,-1.0034,3.544,-7.7,-1.846
1772932655660.8577,-0.0681,-0.0053,-1.0009,4.165,-8.592,-1.96
1772932655675.9944,-0.0662,-0.0081,-0.9955,4.393,-9.476,-2.354
1772932655675.9944,-0.0708,-0.0091,-0.9895,4.734,-9.695,-2.179
1772932655675.9944,-0.0719,-0.0121,-0.984,4.393,-9.572,-2.214
1772932655675.9944,-0.0697,-0.0153,-0.9789,3.911,-9.441,-1.732
1772932655691.5378,-0.0695,-0.0179,-0.9714,3.763,-8.916,-1.724
1772932655691.5378,-0.0692,-0.0203,-0.9688,3.15,-8.453,-1.452
1772932655691.5378,-0.07,-0.024,-0.9609,2.546,-7.665,-1.391
1772932655691.5378,-0.0685,-0.0236,-0.9586,1.899,-6.676,-1.26
1772932655691.5378,-0.0676,-0.0207,-0.9567,1.321,-5.714,-1.129
1772932655707.7048,-0.065,-0.0132,-0.9595,1.006,-4.839,-1.522
1772932655707.7048,-0.0661,-0.011,-0.9683,1.391,-4.357,-1.496
1772932655707.7048,-0.0646,-0.0095,-0.9849,1.811,-4.261,-1.768
1772932655707.7048,-0.0638,-0.006,-0.9953,2.931,-4.681,-1.68
1772932655723.2615,-0.0678,-0.0052,-0.9968,3.605,-5.801,-1.986
1772932655723.2615,-0.0703,-0.0052,-0.9966,4.043,-7.035,-2.047
1772932655723.2615,-0.0749,-0.0101,-0.9891,4.13,-8.26,-2.056
1772932655738.4937,-0.0801,-0.0161,-0.9806,3.885,-8.601,-1.698
1772932655738.4937,-0.0815,-0.0184,-0.9765,3.561,-8.636,-1.041
1772932655738.4937,-0.0814,-0.0179,-0.9776,3.325,-8.374,-0.779
1772932655738.4937,-0.0789,-0.0153,-0.9795,3.054,-7.928,-0.464
1772932655753.772,-0.0765,-0.0158,-0.9904,2.879,-8.155,-0.149
1772932655753.772,-0.0754,-0.0137,-1.007,2.8,-8.356,-0.385
1772932655753.772,-0.0719,-0.0096,-1.0331,2.669,-9.161,-0.542
1772932655753.772,-0.0714,-0.0073,-1.0468,2.362,-10.342,-1.006
1772932655769.814,-0.0758,-0.0093,-1.0443,1.208,-10.719,-1.312
1772932655769.814,-0.0805,-0.0076,-1.0338,-0.079,-10.456,-1.286
1772932655769.814,-0.0906,-0.0115,-1.0072,-2.853,-8.12,-1.855
1772932655769.814,-0.0906,-0.014,-0.9897,-5.504,-5.635,-2.144
1772932655785.6418,-0.092,-0.0121,-0.9764,-7.586,-3.29,-2.651
1772932655785.6418,-0.0918,-0.0057,-0.9603,-8.566,-1.181,-2.704
1772932655785.6418,-0.0909,-0.0057,-0.9465,-8.295,-0.201,-2.853
1772932655785.6418,-0.087,-0.0051,-0.929,-6.423,-0.429,-2.922
1772932655785.6418,-0.0853,-0.0075,-0.9182,-4.139,-1.295,-2.879
1772932655801.1948,-0.0822,-0.0113,-0.9054,-1.47,-2.581,-2.73
1772932655801.1948,-0.0804,-0.0187,-0.9034,1.488,-3.938,-2.004
1772932655816.3481,-0.0789,-0.0243,-0.9077,3.185,-4.69,-1.601
1772932655816.3481,-0.0753,-0.0256,-0.9206,4.305,-5.294,-1.321
1772932655816.3481,-0.0733,-0.0254,-0.9292,4.821,-5.294,-0.726
1772932655816.3481,-0.0712,-0.0248,-0.9442,5.18,-5.285,-0.726
1772932655816.3481,-0.0662,-0.0212,-0.957,5.189,-5.154,-0.446
1772932655831.7668,-0.0682,-0.0168,-0.9732,5.381,-5.206,-0.849
1772932655831.7668,-0.0651,-0.0123,-0.9899,4.987,-5.425,-0.998
1772932655831.7668,-0.0632,-0.0101,-1.0009,4.287,-5.652,-1.059
1772932655831.7668,-0.0619,-0.0047,-1.005,3.876,-6.3,-1.584
1772932655847.7993,-0.0633,-0.0004,-1.0111,3.062,-6.921,-1.732
1772932655847.7993,-0.0628,0.0013,-1.007,2.38,-7.543,-2.083
1772932655847.7993,-0.0661,0.0018,-1.0035,1.479,-7.875,-2.039
1772932655847.7993,-0.0683,0.0027,-0.9958,0.901,-8.269,-2.091
1772932655863.4077,-0.0704,0.0053,-0.9856,0.429,-8.006,-1.986
1772932655863.4077,-0.0713,0.0038,-0.9753,0.376,-7.473,-1.881
1772932655863.4077,-0.0752,0.0056,-0.965,0.674,-6.58,-1.706
1772932655863.4077,-0.0759,0.0041,-0.9625,0.866,-5.574,-1.663
1772932655863.4077,-0.0728,0.0041,-0.9618,1.452,-4.611,-1.522
1772932655879.5122,-0.0754,0.003,-0.9616,1.864,-3.841,-1.225
1772932655879.5122,-0.0739,0.0003,-0.9638,2.538,-3.351,-1.26
1772932655879.5122,-0.0713,0.0009,-0.9672,3.185,-3.15,-1.304
1772932655879.5122,-0.0725,-0.0022,-0.9692,3.482,-2.643,-1.47
1772932655895.2695,-0.0708,-0.0035,-0.9756,4.165,-3.036,-1.347
1772932655895.2695,-0.0689,-0.0068,-0.9757,4.209,-3.132,-1.452
1772932655895.2695,-0.0675,-0.0092,-0.972,4.62,-3.518,-1.479
1772932655910.8528,-0.068,-0.0122,-0.9775,4.559,-3.57,-1.488
1772932655910.8528,-0.0675,-0.012,-0.9754,4.428,-3.815,-1.663
1772932655910.8528,-0.0686,-0.0092,-0.9737,4.253,-4.156,-1.426
1772932655910.8528,-0.0705,-0.0126,-0.9757,4.121,-4.218,-1.347
1772932655926.05,-0.0735,-0.0113,-0.9717,3.824,-4.226,-1.33
1772932655926.05,-0.0731,-0.0134,-0.9705,3.649,-4.226,-1.33
1772932655926.05,-0.075,-0.0107,-0.9696,3.64,-3.999,-1.33
1772932655926.05,-0.0758,-0.0115,-0.9705,3.255,-3.351,-1.278
1772932655941.2195,-0.0786,-0.0103,-0.9717,3.482,-3.185,-1.103
1772932655941.2195,-0.077,-0.0097,-0.9734,3.089,-2.87,-1.12
1772932655941.2195,-0.0804,-0.0103,-0.9751,3.019,-2.634,-1.365
1772932655941.2195,-0.0784,-0.0096,-0.9773,2.809,-2.118,-1.558
1772932655941.2195,-0.0772,-0.0098,-0.978,2.949,-2.494,-1.505
1772932655957.7654,-0.0777,-0.009,-0.9768,2.835,-2.389,-1.802
1772932655957.7654,-0.0766,-0.007,-0.9801,2.783,-2.397,-1.68
1772932655957.7654,-0.0738,-0.0055,-0.9819,2.879,-3.089,-1.925
1772932655957.7654,-0.0737,-0.0077,-0.9828,2.651,-3.29,-1.794
1772932655973.1558,-0.0742,-0.0106,-0.9832,2.774,-3.876,-2.039
1772932655973.1558,-0.0738,-0.0115,-0.9817,2.643,-3.885,-1.89
1772932655973.1558,-0.0708,-0.01,-0.9809,2.922,-4.095,-1.741
1772932655988.7644,-0.0711,-0.0097,-0.9784,3.071,-4.06,-1.531
1772932655988.7644,-0.07,-0.011,-0.979,3.211,-4.121,-1.409
1772932655988.7644,-0.0727,-0.0098,-0.9767,3.369,-4.016,-1.444
1772932655988.7644,-0.0722,-0.0101,-0.9747,3.237,-4.13,-1.435
1772932656004.228,-0.0719,-0.0106,-0.9758,3.447,-3.806,-1.452
1772932656004.228,-0.0735,-0.0104,-0.975,3.089,-3.561,-1.409
1772932656004.228,-0.071,-0.0111,-0.9777,3.369,-3.771,-1.225
1772932656004.228,-0.0709,-0.0107,-0.9792,3.194,-3.85,-1.864
1772932656019.819,-0.0698,-0.0101,-0.9838,3.159,-3.938,-1.54
1772932656019.819,-0.0691,-0.0107,-0.9844,2.931,-3.666,-1.19
1772932656019.819,-0.0698,-0.0093,-0.9884,2.791,-4.104,-1.234
1772932656019.819,-0.0669,-0.0098,-0.9868,2.354,-3.955,-1.234
1772932656019.819,-0.0702,-0.0066,-0.9869,2.196,-4.191,-1.251
1772932656035.4268,-0.0738,-0.0066,-0.9875,2.091,-4.069,-1.251
1772932656035.4268,-0.0699,-0.0047,-0.9881,1.837,-4.139,-1.295
1772932656035.4268,-0.0714,-0.0071,-0.9828,2.004,-3.859,-1.181
1772932656035.4268,-0.0722,-0.0073,-0.9811,2.091,-3.841,-1.356
1772932656051.5247,-0.0726,-0.0067,-0.9796,1.951,-3.474,-1.347
1772932656051.5247,-0.0722,-0.0076,-0.9766,2.03,-3.421,-1.566
1772932656051.5247,-0.0689,-0.0085,-0.9772,2.083,-3.596,-1.435
1772932656051.5247,-0.0684,-0.0123,-0.9744,2.126,-3.797,-1.47
1772932656066.6145,-0.0675,-0.0129,-0.9735,2.467,-4.016,-1.383
1772932656066.6145,-0.0675,-0.015,-0.9745,2.494,-3.763,-1.208
1772932656066.6145,-0.0669,-0.0135,-0.9738,2.686,-3.815,-1.129
1772932656082.6733,-0.0669,-0.0144,-0.9729,2.643,-4.016,-1.129
1772932656082.6733,-0.0672,-0.0118,-0.9747,2.704,-3.964,-0.84
1772932656082.6733,-0.0659,-0.0134,-0.9769,2.922,-4.06,-1.234
1772932656082.6733,-0.0666,-0.0124,-0.9788,2.931,-4.322,-1.155
1772932656097.8071,-0.0675,-0.0088,-0.9803,2.993,-4.314,-1.076
1772932656097.8071,-0.0655,-0.0063,-0.9798,3.019,-4.191,-1.522
1772932656097.8071,-0.0638,-0.0092,-0.9814,2.888,-4.524,-1.286
1772932656097.8071,-0.0669,-0.0081,-0.9805,2.817,-4.795,-1.312
1772932656113.9094,-0.0642,-0.0051,-0.9811,2.826,-5.014,-1.312
1772932656113.9094,-0.0635,-0.0048,-0.9819,2.634,-5.058,-1.312
1772932656113.9094,-0.0645,-0.0064,-0.9806,2.643,-5.005,-1.26
1772932656113.9094,-0.0625,-0.0032,-0.9816,2.476,-5.005,-1.295
1772932656113.9094,-0.0631,-0.0043,-0.9798,2.406,-4.979,-1.059
1772932656129.3088,-0.0642,-0.0038,-0.978,2.704,-5.058,-1.155
1772932656129.3088,-0.0615,-0.0023,-0.9762,2.607,-5.066,-0.936
1772932656129.3088,-0.063,-0.0018,-0.9755,2.721,-5.005,-1.173
1772932656129.3088,-0.0633,-0.0024,-0.975,2.931,-4.707,-0.954
1772932656144.9055,-0.0629,0.0003,-0.9751,3.071,-4.646,-0.945
1772932656144.9055,-0.0621,-0.0024,-0.9756,3.159,-4.673,-1.067
1772932656144.9055,-0.0651,-0.0029,-0.975,3.351,-4.48,-1.312
1772932656160.831,-0.0657,-0.0051,-0.9759,3.474,-4.594,-1.19
1772932656160.831,-0.0673,-0.0049,-0.9766,3.395,-4.112,-1.164
1772932656160.831,-0.0655,-0.0054,-0.9744,3.272,-4.077,-1.4
1772932656160.831,-0.068,-0.0092,-0.9776,3.089,-3.859,-1.278
1772932656177.4033,-0.0697,-0.0093,-0.9747,3.054,-3.885,-1.234
1772932656177.4033,-0.0684,-0.0104,-0.9766,2.975,-3.701,-1.006
1772932656177.4033,-0.0673,-0.0124,-0.9737,2.94,-3.929,-1.242
1772932656177.4033,-0.0663,-0.0104,-0.9767,2.511,-3.692,-1.26
1772932656192.9495,-0.0651,-0.0099,-0.9769,2.853,-3.806,-1.391
1772932656192.9495,-0.0658,-0.0106,-0.9794,2.896,-3.946,-1.627
1772932656192.9495,-0.0634,-0.0076,-0.9817,2.844,-3.719,-1.741
1772932656192.9495,-0.0664,-0.009,-0.9825,2.643,-3.973,-1.575
1772932656192.9495,-0.0652,-0.0094,-0.983,2.529,-3.789,-1.829
1772932656208.53,-0.0635,-0.0087,-0.9823,2.52,-4.183,-1.768
1772932656208.53,-0.0649,-0.0081,-0.9856,2.625,-4.165,-1.724
1772932656208.53,-0.0667,-0.0078,-0.9833,2.564,-4.27,-1.54
1772932656208.53,-0.0676,-0.0098,-0.9816,2.529,-4.191,-1.531
1772932656224.0815,-0.0686,-0.0102,-0.9816,2.476,-4.121,-1.479
1772932656224.0815,-0.0658,-0.0092,-0.9819,2.336,-4.305,-1.496
1772932656224.0815,-0.0668,-0.011,-0.9808,2.249,-4.567,-1.164
1772932656224.0815,-0.0678,-0.0087,-0.9808,2.126,-4.611,-1.164
1772932656240.2734,-0.0669,-0.0099,-0.9783,2.17,-4.41,-1.452
1772932656240.2734,-0.0667,-0.0102,-0.9796,2.397,-4.769,-1.146
1772932656240.2734,-0.0655,-0.0107,-0.9792,2.205,-4.349,-1.47
1772932656240.2734,-0.0658,-0.0098,-0.981,2.301,-4.357,-1.654
1772932656255.8591,-0.0652,-0.0102,-0.9777,2.074,-4.34,-1.374
1772932656255.8591,-0.0667,-0.0078,-0.9771,2.03,-4.314,-1.365
1772932656255.8591,-0.0671,-0.0068,-0.9778,1.907,-4.34,-1.409
1772932656271.4368,-0.0652,-0.0045,-0.9782,2.214,-4.218,-1.286
1772932656271.4368,-0.0656,-0.006,-0.9795,2.223,-4.2,-1.33
1772932656271.4368,-0.0653,-0.0051,-0.9765,2.074,-4.209,-1.374
1772932656271.4368,-0.0659,-0.0066,-0.9789,2.31,-4.174,-1.47
1772932656271.4368,-0.0661,-0.0065,-0.977,2.354,-4.567,-1.435
1772932656287.0593,-0.0666,-0.004,-0.9775,2.433,-4.428,-1.374
1772932656287.0593,-0.064,-0.0055,-0.9784,2.249,-4.41,-1.356
1772932656287.0593,-0.0633,-0.0065,-0.9743,2.056,-4.55,-1.208
1772932656287.0593,-0.0647,-0.0062,-0.9767,2.021,-4.664,-1.452
1772932656303.6287,-0.0639,-0.0066,-0.9783,2.161,-4.716,-1.339
1772932656303.6287,-0.0607,-0.0054,-0.9778,2.24,-4.944,-1.33
1772932656303.6287,-0.0628,-0.0055,-0.978,2.494,-4.769,-1.33
1772932656303.6287,-0.0635,-0.0052,-0.977,2.397,-4.603,-1.208
1772932656319.5576,-0.0611,-0.0077,-0.9782,2.73,-4.918,-1.417
1772932656319.5576,-0.0607,-0.0049,-0.9778,2.695,-4.734,-1.278
1772932656319.5576,-0.0598,-0.0059,-0.9795,2.555,-4.9,-1.54
1772932656319.5576,-0.0602,-0.0063,-0.9811,2.678,-4.848,-1.488
1772932656335.5872,-0.0592,-0.006,-0.9822,2.599,-4.83,-1.365
1772932656335.5872,-0.0618,-0.0047,-0.9844,2.704,-5.18,-1.383
1772932656335.5872,-0.0611,-0.0075,-0.9816,2.485,-5.206,-1.566
1772932656335.5872,-0.064,-0.0056,-0.9778,2.284,-5.162,-1.645
1772932656335.5872,-0.0622,-0.0051,-0.9798,2.17,-5.364,-1.558
1772932656351.683,-0.0631,-0.0038,-0.9795,1.934,-5.6,-1.435
1772932656351.683,-0.0639,-0.0043,-0.9789,1.864,-5.495,-1.496
1772932656351.683,-0.0637,-0.0026,-0.9813,1.794,-5.626,-1.75
1772932656351.683,-0.0645,-0.0037,-0.9797,1.671,-5.46,-1.558
1772932656367.4514,-0.0629,-0.0032,-0.9773,1.706,-5.67,-1.488
1772932656367.4514,-0.0664,-0.0047,-0.9763,1.584,-5.827,-1.488
1772932656367.4514,-0.0629,-0.0056,-0.9748,1.671,-5.635,-1.409
1772932656382.7268,-0.0637,-0.0021,-0.9771,1.811,-5.626,-1.339
1772932656382.7268,-0.0631,-0.0052,-0.975,2.047,-5.521,-1.426
1772932656382.7268,-0.0623,-0.004,-0.9808,1.663,-5.442,-1.417
1772932656382.7268,-0.0603,-0.0062,-0.9827,1.304,-5.74,-1.505
1772932656398.7793,-0.0653,-0.0066,-0.9842,1.278,-5.6,-1.199
1772932656398.7793,-0.0622,-0.0023,-0.9837,1.05,-6.072,-1.374
1772932656398.7793,-0.0678,-0.0013,-0.9776,0.691,-6.317,-1.426
1772932656398.7793,-0.0691,0.0046,-0.977,0.63,-6.44,-1.54
1772932656414.7532,-0.0693,0.0087,-0.9736,0.087,-6.449,-1.864
1772932656414.7532,-0.072,0.0077,-0.9755,-0.149,-6.668,-2.223
1772932656414.7532,-0.072,0.0104,-0.9819,-0.858,-6.86,-2.38
1772932656414.7532,-0.0707,0.0093,-0.9886,-1.426,-7.131,-2.721
1772932656414.7532,-0.0716,0.0115,-0.9873,-2.135,-7.525,-2.678
1772932656430.731,-0.0737,0.0157,-0.9817,-2.922,-8.006,-2.905
1772932656430.731,-0.0769,0.0213,-0.9727,-3.491,-8.549,-3.124
1772932656430.731,-0.0774,0.0218,-0.9637,-3.474,-8.584,-3.535
1772932656430.731,-0.0761,0.0225,-0.9646,-3.08,-8.129,-4.043
1772932656446.1003,-0.0751,0.0176,-0.9679,-2.993,-7.893,-4.287
1772932656446.1003,-0.0725,0.0137,-0.9712,-2.922,-7.56,-4.716
1772932656446.1003,-0.066,0.0096,-0.9727,-2.502,-7.306,-4.777
1772932656446.1003,-0.0606,0.004,-0.9729,-1.986,-6.755,-4.751
1772932656461.6768,-0.0626,-0.0039,-0.9766,-1.12,-6.37,-4.725
1772932656461.6768,-0.0593,-0.0129,-0.9764,-0.674,-6.204,-4.305
1772932656461.6768,-0.0564,-0.0209,-0.9751,0.035,-5.862,-3.999
1772932656477.6213,-0.0528,-0.0225,-0.9769,0.525,-5.399,-3.649
1772932656477.6213,-0.0547,-0.0255,-0.9839,0.805,-5.355,-2.993
1772932656477.6213,-0.0533,-0.0251,-0.9841,1.234,-5.162,-2.511
1772932656477.6213,-0.0559,-0.0257,-0.9851,1.785,-5.25,-2.354
1772932656493.6702,-0.0556,-0.0236,-0.9888,2.362,-5.609,-2.249
1772932656493.6702,-0.0558,-0.0218,-0.9845,2.835,-5.688,-2.013
1772932656493.6702,-0.0572,-0.0206,-0.9873,2.817,-5.845,-2.214
1772932656493.6702,-0.0602,-0.0192,-0.9842,2.765,-6.081,-2.144
1772932656509.7449,-0.0605,-0.0164,-0.986,2.922,-6.239,-2.004
1772932656509.7449,-0.061,-0.0162,-0.9819,2.275,-6.457,-2.056
1772932656509.7449,-0.0619,-0.012,-0.9847,2.223,-6.178,-2.1
1772932656509.7449,-0.0623,-0.0067,-0.9855,1.759,-6.431,-2.039
1772932656509.7449,-0.0639,-0.0059,-0.9844,1.89,-5.95,-1.96
1772932656525.3152,-0.066,-0.0004,-0.9845,1.304,-6.361,-1.759
1772932656525.3152,-0.0637,0.0022,-0.9834,1.496,-6.562,-1.829
1772932656525.3152,-0.0661,0.0045,-0.9831,1.759,-6.143,-1.724
1772932656525.3152,-0.0651,0.0085,-0.9801,1.925,-6.414,-1.689
1772932656540.8748,-0.0653,0.0072,-0.9806,2.257,-6.072,-1.391
1772932656540.8748,-0.0652,0.0085,-0.9789,2.52,-5.968,-1.19
1772932656540.8748,-0.0631,0.0098,-0.9804,2.94,-6.046,-1.593
1772932656540.8748,-0.0651,0.0066,-0.9787,3.036,-5.889,-1.4
1772932656556.1924,-0.062,0.0058,-0.9777,3.369,-5.766,-1.522
1772932656556.1924,-0.0623,0.0043,-0.9779,3.5,-5.819,-1.356
1772932656556.1924,-0.0617,0.0014,-0.9784,3.526,-5.644,-1.566
1772932656572.3108,-0.0623,-0.002,-0.98,3.553,-5.442,-1.365
1772932656572.3108,-0.0603,-0.0043,-0.9794,3.876,-5.582,-1.575
1772932656572.3108,-0.06,-0.0066,-0.9794,3.833,-5.46,-1.593
1772932656572.3108,-0.0612,-0.0059,-0.9795,3.43,-5.548,-1.208
1772932656572.3108,-0.0627,-0.0081,-0.9793,3.544,-5.635,-1.181
1772932656587.5706,-0.0617,-0.0071,-0.9815,3.167,-5.775,-1.094
1772932656587.5706,-0.0634,-0.0059,-0.9828,3.106,-5.906,-1.295
1772932656587.5706,-0.0609,-0.0037,-0.9843,2.861,-5.845,-1.146
1772932656587.5706,-0.0645,-0.0023,-0.9799,3.045,-5.854,-1.242
1772932656603.6938,-0.0636,0.0004,-0.9838,3.001,-6.099,-1.347
1772932656603.6938,-0.0628,0.0006,-0.9819,2.993,-5.976,-1.278
1772932656603.6938,-0.0661,0.0022,-0.9815,3.237,-6.178,-1.321
1772932656603.6938,-0.0644,0.0043,-0.978,3.316,-6.221,-1.155
1772932656619.738,-0.0641,0.0037,-0.9797,3.308,-6.51,-1.015
1772932656619.738,-0.0615,0.0026,-0.9781,3.413,-6.011,-1.129
1772932656619.738,-0.0643,0.0004,-0.9756,3.15,-5.924,-1.146
1772932656619.738,-0.0646,-0.001,-0.977,3.465,-5.924,-1.006
1772932656619.738,-0.0645,-0.0009,-0.9744,3.36,-5.819,-1.199
1772932656634.7954,-0.0622,0.0001,-0.9736,3.395,-5.285,-0.91
1772932656634.7954,-0.0623,-0.0009,-0.9777,3.308,-5.364,-1.094
1772932656634.7954,-0.0636,-0.0011,-0.9738,3.071,-5.276,-1.024
1772932656634.7954,-0.0659,-0.0022,-0.9777,3.124,-5.101,-1.103
1772932656649.434,-0.0642,-0.0009,-0.9781,2.835,-5.075,-1.19
1772932656649.434,-0.0674,-0.0018,-0.9805,2.984,-4.769,-0.971
1772932656649.434,-0.0662,-0.0018,-0.9826,2.888,-5.101,-1.076
1772932656665.0417,-0.0654,-0.0029,-0.9866,2.774,-5.058,-0.936
1772932656665.0417,-0.0681,-0.0024,-0.9897,3.115,-5.548,-0.849
1772932656665.0417,-0.0675,-0.0033,-0.9915,3.124,-5.407,-1.067
1772932656665.0417,-0.0656,-0.0007,-0.9964,3.666,-5.88,-1.12
1772932656680.7078,-0.0639,0.0015,-0.9994,4.069,-6.615,-1.12
1772932656680.7078,-0.0643,-0.0004,-0.9984,4.471,-6.974,-1.111
1772932656680.7078,-0.0612,-0.0029,-0.9972,4.751,-7.473,-1.006
1772932656680.7078,-0.062,-0.0018,-0.9959,5.066,-8.102,-1.278
1772932656696.743,-0.0617,-0.0029,-0.9965,5.372,-8.636,-1.032
1772932656696.743,-0.0611,-0.0042,-0.9905,5.661,-11.13,-0.945
1772932656696.743,-0.0617,-0.0101,-0.9851,5.276,-9.039,-0.823
1772932656696.743,-0.0631,-0.0103,-0.98,5.32,-8.899,-0.709
1772932656696.743,-0.0636,-0.0122,-0.9733,5.066,-8.418,-0.367
1772932656712.817,-0.0615,-0.0118,-0.9679,4.515,-8.146,-0.394
1772932656712.817,-0.0633,-0.0113,-0.9622,4.008,-7.166,-0.376
1772932656712.817,-0.0625,-0.0096,-0.9622,3.272,-5.854,-0.087
1772932656712.817,-0.0653,-0.0022,-0.9679,3.386,-5.442,-0.14
1772932656728.5652,-0.0618,0.0001,-0.975,3.456,-4.821,-0.061
1772932656728.5652,-0.0645,0.007,-0.9792,3.806,-4.751,-0.516
1772932656728.5652,-0.0653,0.0073,-0.9854,4.366,-5.18,-0.744
1772932656743.6836,-0.0682,0.0087,-0.9927,5.066,-5.941,-0.752
1772932656743.6836,-0.0692,0.003,-0.9959,5.504,-6.317,-0.796
1772932656743.6836,-0.068,0.0013,-0.9933,5.661,-7.385,-0.613
1772932656743.6836,-0.0706,-0.0013,-0.9942,5.88,-8.137,-0.49
1772932656759.7654,-0.0717,-0.0036,-0.9898,5.775,-8.759,-0.158
1772932656759.7654,-0.0697,-0.0088,-0.9904,5.95,-8.977,0.219
1772932656759.7654,-0.07,-0.0086,-0.9917,5.521,-9.415,0.219
1772932656759.7654,-0.0667,-0.0082,-0.9982,5.031,-9.398,0.613
1772932656775.144,-0.0628,-0.0081,-1.013,4.497,-9.975,0.665
1772932656775.144,-0.0599,-0.0058,-1.0277,3.692,-11.008,0.709
1772932656775.144,-0.0609,-0.0034,-1.0486,2.888,-11.865,0.438
1772932656775.144,-0.0614,-0.0013,-1.0576,1.829,-13.352,-0.087
1772932656775.144,-0.0716,-0.0059,-1.0482,0.472,-14.324,-0.613
1772932656790.0564,-0.079,-0.0113,-1.0289,-0.971,-12.898,-0.84
1772932656790.0564,-0.09,-0.0194,-1.002,-3.089,-10.666,-0.542
1772932656805.728,-0.0981,-0.0249,-0.9828,-5.836,-6.116,0.044
1772932656805.728,-0.0986,-0.019,-0.9598,-7.018,-3.01,0.464
1772932656805.728,-0.093,-0.0113,-0.9442,-7.157,-0.035,0.805
1772932656805.728,-0.0899,-0.0054,-0.9275,-6.379,1.339,0.796
1772932656805.728,-0.0825,-0.0028,-0.9051,-4.55,1.452,0.455
1772932656821.6946,-0.0817,-0.0034,-0.8918,-2.643,0.516,0.385
1772932656821.6946,-0.0797,-0.0037,-0.8771,-0.507,-0.403,0.149
1772932656821.6946,-0.0761,-0.0046,-0.8736,1.759,-2.179,-0.507
1772932656821.6946,-0.0758,-0.0061,-0.8822,3.185,-3.019,-0.236
1772932656837.72,-0.0758,-0.0086,-0.8943,3.771,-3.299,0.158
1772932656837.72,-0.0742,-0.0049,-0.9129,4.209,-3.404,0.411
1772932656837.72,-0.072,-0.0037,-0.9322,4.445,-3.22,0.446
1772932656837.72,-0.0703,0.0007,-0.9566,4.629,-2.922,0.621
1772932656853.7632,-0.0636,0.0048,-0.972,4.629,-2.87,0.823
1772932656853.7632,-0.062,0.0098,-0.9942,4.55,-2.739,0.656
1772932656853.7632,-0.0624,0.0124,-1.0025,4.235,-3.544,0.403
1772932656853.7632,-0.0606,0.0155,-1.0121,3.509,-4.235,-0.035
1772932656853.7632,-0.0601,0.015,-1.0139,2.756,-5.119,-0.42
1772932656869.3186,-0.0614,0.0184,-1.0146,1.846,-5.661,-0.752
1772932656869.3186,-0.0634,0.0174,-1.0119,0.709,-6.204,-1.129
1772932656869.3186,-0.0629,0.014,-1.0061,-0.009,-6.729,-1.4
1772932656869.3186,-0.0651,0.0146,-0.9944,-0.376,-6.606,-1.312
1772932656884.897,-0.0645,0.0171,-0.9864,-0.507,-6.046,-1.365
1772932656884.897,-0.0647,0.0127,-0.9802,0.035,-5.836,-1.208
1772932656884.897,-0.0657,0.016,-0.975,0.438,-5.049,-0.989
1772932656884.897,-0.064,0.0149,-0.9721,1.33,-4.419,-0.919
1772932656900.7415,-0.0639,0.0123,-0.9678,1.864,-3.614,-0.744
1772932656900.7415,-0.0642,0.012,-0.9679,2.38,-3.456,-0.621
1772932656900.7415,-0.0641,0.0123,-0.9689,3.745,-2.966,-0.166
1772932656916.183,-0.0473,0.0102,-0.9733,4.314,-3.071,-0.306
1772932656916.183,-0.0637,0.0088,-0.972,4.777,-3.176,-0.472
1772932656916.183,-0.0639,0.0073,-0.9753,5.18,-3.22,-0.289
1772932656916.183,-0.0637,0.0046,-0.975,5.46,-3.299,-0.735
1772932656916.183,-0.0646,0.0029,-0.9748,5.67,-3.465,-0.718
1772932656931.8423,-0.0676,0.0021,-0.9739,5.801,-3.509,-0.814
1772932656931.8423,-0.0649,0.0013,-0.9728,5.723,-3.57,-1.173
1772932656931.8423,-0.0642,-0.0003,-0.9726,5.714,-3.911,-1.103
1772932656931.8423,-0.0672,-0.0038,-0.9709,5.46,-3.736,-0.98
1772932656947.485,-0.0673,-0.0019,-0.9693,5.189,-3.806,-1.111
1772932656947.485,-0.0698,-0.0019,-0.9725,4.716,-3.911,-1.12
1772932656947.485,-0.072,-0.0037,-0.9717,4.515,-3.797,-1.041
1772932656947.485,-0.0713,-0.0004,-0.9731,4.008,-3.535,-1.111
1772932656963.0664,-0.0733,-0.001,-0.9717,3.973,-3.71,-1.26
1772932656963.0664,-0.0725,-0.0003,-0.9762,3.474,-3.413,-1.426
1772932656963.0664,-0.077,0.0015,-0.9769,3.404,-3.675,-1.347
1772932656963.0664,-0.0736,0.0028,-0.9816,3.404,-3.806,-1.514
1772932656963.0664,-0.075,0.0016,-0.9812,3.299,-3.71,-1.636
1772932656979.2017,-0.0715,0.0001,-0.9801,3.272,-4.06,-1.575
1772932656979.2017,-0.0716,0.0016,-0.9815,3.456,-4.287,-1.645
1772932656979.2017,-0.0689,0.0012,-0.9802,3.561,-4.244,-1.68
1772932656979.2017,-0.0691,0.0001,-0.9809,3.596,-4.384,-1.61
1772932656993.8647,-0.0675,-0.0034,-0.9784,3.474,-4.471,-1.627
1772932656993.8647,-0.0648,-0.0012,-0.9792,3.938,-4.812,-1.522
1772932656993.8647,-0.0665,-0.002,-0.9755,3.745,-4.848,-1.365
1772932657009.4043,-0.0653,-0.0037,-0.9764,3.92,-4.865,-1.47
1772932657009.4043,-0.0685,-0.0016,-0.9753,4.296,-4.611,-1.409
1772932657009.4043,-0.0673,-0.0021,-0.9755,4.331,-4.734,-1.444
1772932657009.4043,-0.0683,-0.0015,-0.974,4.235,-4.41,-1.417
1772932657025.152,-0.0691,-0.0049,-0.975,4.436,-4.585,-1.391
1772932657025.152,-0.0656,-0.0021,-0.9758,3.99,-4.357,-1.479
1772932657025.152,-0.067,-0.0003,-0.9801,4.069,-4.506,-1.488
1772932657025.152,-0.0642,-0.0015,-0.9811,3.876,-4.638,-1.54
1772932657041.2107,-0.0643,0.0002,-0.9831,3.561,-4.55,-1.4
1772932657041.2107,-0.0654,0.0021,-0.9833,3.413,-4.384,-1.321
1772932657041.2107,-0.0643,0.0034,-0.9845,3.43,-4.673,-1.864
1772932657041.2107,-0.0665,0.0025,-0.99,3.124,-4.935,-1.698
1772932657041.2107,-0.0651,0.0069,-0.9915,3.054,-5.18,-1.444
1772932657057.6877,-0.0677,0.0061,-0.9891,2.922,-5.084,-1.488
1772932657057.6877,-0.0667,0.0051,-0.9864,2.748,-4.585,-1.505
1772932657057.6877,-0.0683,0.0049,-0.9865,3.255,-4.848,-1.881
1772932657057.6877,-0.0664,0.0024,-0.9884,2.993,-4.664,-1.855
1772932657073.4106,-0.0654,0.0021,-0.9855,3.194,-4.821,-1.732
1772932657073.4106,-0.0667,0.0,-0.9828,3.211,-4.673,-1.645
1772932657073.4106,-0.0653,-0.002,-0.9838,3.203,-4.777,-1.706
1772932657088.6624,-0.064,-0.0054,-0.9833,3.325,-5.162,-1.558
1772932657088.6624,-0.0619,-0.0065,-0.9822,3.334,-5.582,-1.627
1772932657088.6624,-0.0626,-0.0065,-0.981,3.342,-5.591,-1.208
1772932657088.6624,-0.0632,-0.0063,-0.983,3.439,-5.793,-1.347
1772932657104.8464,-0.0634,-0.0076,-0.9799,3.859,-6.379,-1.251
1772932657104.8464,-0.0639,-0.0074,-0.9793,3.859,-6.16,-1.19
1772932657104.8464,-0.0621,-0.0099,-0.9786,4.27,-6.291,-1.208
1772932657104.8464,-0.0637,-0.006,-0.9808,4.454,-6.44,-1.321
1772932657104.8464,-0.062,-0.0077,-0.9805,4.524,-6.598,-1.391
1772932657120.9424,-0.062,-0.0076,-0.983,4.463,-6.169,-1.164
1772932657120.9424,-0.0609,-0.0077,-0.9786,4.559,-6.116,-1.216
1772932657120.9424,-0.0616,-0.0069,-0.98,4.463,-6.247,-1.137
1772932657120.9424,-0.061,-0.0073,-0.9812,4.165,-6.353,-1.164
1772932657137.5422,-0.0584,-0.0051,-0.979,3.955,-6.23,-1.242
1772932657137.5422,-0.0631,-0.0026,-0.9808,3.745,-6.256,-0.971
1772932657137.5422,-0.0605,-0.0002,-0.9783,3.614,-6.072,-1.006
1772932657137.5422,-0.062,0.0019,-0.9759,2.774,-6.072,-0.945
1772932657153.5818,-0.0628,0.005,-0.9755,2.853,-6.186,-1.111
1772932657153.5818,-0.064,0.0085,-0.9728,3.062,-6.029,-1.225
1772932657153.5818,-0.065,0.0078,-0.9736,2.993,-5.845,-1.19
1772932657153.5818,-0.0628,0.009,-0.9734,2.905,-5.39,-1.321
1772932657169.6995,-0.0619,0.0071,-0.9792,3.019,-5.582,-1.295
1772932657169.6995,-0.0641,0.0063,-0.9784,3.325,-5.25,-1.417
1772932657169.6995,-0.0619,0.0054,-0.981,3.701,-5.451,-1.452
1772932657169.6995,-0.0633,0.0033,-0.9801,3.649,-5.548,-1.4
1772932657169.6995,-0.0606,0.0005,-0.977,4.165,-5.582,-1.645
1772932657185.2654,-0.0611,-0.0021,-0.9778,3.894,-5.311,-1.26
1772932657185.2654,-0.0636,-0.0045,-0.9787,4.095,-5.268,-1.435
1772932657185.2654,-0.0598,-0.004,-0.9761,4.095,-5.119,-1.103
1772932657185.2654,-0.0637,-0.0045,-0.9775,4.191,-5.058,-1.365
1772932657201.0408,-0.0503,-0.0052,-0.9787,3.841,-4.961,-1.278
1772932657201.0408,-0.0637,-0.0049,-0.9769,3.745,-4.821,-1.26
1772932657201.0408,-0.0647,-0.0058,-0.9794,3.859,-5.215,-1.584
1772932657216.4458,-0.0658,-0.0029,-0.9804,3.57,-4.987,-1.496
1772932657216.4458,-0.0662,-0.0034,-0.9812,3.518,-4.97,-1.899
1772932657216.4458,-0.0669,-0.0023,-0.983,3.369,-5.232,-1.759
1772932657216.4458,-0.0672,-0.0049,-0.9847,3.36,-5.197,-1.829
1772932657231.8127,-0.0648,-0.0059,-0.9837,3.019,-5.451,-1.873
1772932657231.8127,-0.064,-0.0062,-0.9846,3.264,-5.565,-1.837
1772932657231.8127,-0.065,-0.0073,-0.9838,3.272,-5.679,-1.584
1772932657231.8127,-0.066,-0.0064,-0.9832,3.08,-5.766,-1.452
1772932657247.368,-0.0661,-0.0066,-0.9811,3.22,-5.775,-1.391
1772932657247.368,-0.0651,-0.0077,-0.982,3.308,-5.862,-1.251
1772932657247.368,-0.0651,-0.0076,-0.9819,3.071,-6.037,-1.558
1772932657247.368,-0.0651,-0.0084,-0.9811,3.255,-5.941,-1.435
1772932657247.368,-0.0641,-0.0065,-0.979,3.01,-5.854,-1.54
1772932657262.9705,-0.0666,-0.0039,-0.9792,3.141,-5.819,-1.601
1772932657262.9705,-0.0683,-0.0052,-0.979,3.299,-5.845,-1.873
1772932657262.9705,-0.0681,-0.0029,-0.977,3.325,-5.941,-1.724
1772932657262.9705,-0.0705,-0.0026,-0.9806,3.22,-5.784,-1.601
1772932657278.2874,-0.0684,-0.0023,-0.9773,3.369,-5.854,-1.663
1772932657278.2874,-0.068,-0.0012,-0.9786,3.15,-5.652,-1.698
1772932657278.2874,-0.0705,-0.0006,-0.9761,3.413,-6.02,-1.514
1772932657294.16,-0.0684,0.0002,-0.9755,3.553,-5.696,-1.479
1772932657294.16,-0.0693,-0.0013,-0.9774,3.701,-5.609,-1.802
1772932657294.16,-0.0675,-0.0002,-0.9789,4.095,-5.749,-1.461
1772932657294.16,-0.0686,0.0011,-0.9817,4.218,-5.766,-1.435
1772932657309.8113,-0.0651,-0.0005,-0.9848,4.226,-5.889,-1.811
1772932657309.8113,-0.067,-0.0006,-0.9837,4.366,-6.169,-1.785
1772932657309.8113,-0.0655,-0.0005,-0.9854,4.41,-6.247,-2.03
1772932657309.8113,-0.0644,-0.002,-0.9864,4.585,-6.799,-1.899
1772932657324.9583,-0.0626,-0.003,-0.9909,4.559,-7.026,-1.916
1772932657324.9583,-0.0642,-0.0024,-0.9888,4.751,-7.508,-1.942
1772932657324.9583,-0.0627,-0.0019,-0.9936,4.918,-7.665,-1.873
1772932657324.9583,-0.0628,-0.0018,-0.9924,5.145,-8.12,-1.829
1772932657324.9583,-0.0633,-0.001,-0.9932,5.206,-8.662,-1.715
1772932657340.521,-0.0618,-0.0008,-0.9923,5.11,-8.96,-1.794
1772932657340.521,-0.0778,-0.0012,-0.993,5.215,-9.459,-1.899
1772932657340.521,-0.0644,-0.0005,-0.9935,5.416,-9.494,-1.776
1772932657340.521,-0.0647,-0.0035,-0.9885,5.434,-9.485,-1.75
1772932657356.138,-0.0647,-0.0037,-0.9883,5.749,-10.089,-1.864
1772932657356.138,-0.0655,-0.0049,-0.9876,5.854,-9.975,-1.855
1772932657356.138,-0.0661,-0.0063,-0.9786,6.169,-9.922,-1.75
1772932657371.6904,-0.0654,-0.0056,-0.9789,6.029,-9.844,-1.785
1772932657371.6904,-0.0672,-0.0072,-0.9784,5.95,-9.231,-1.829
1772932657371.6904,-0.0659,-0.0052,-0.9776,6.204,-9.284,-1.689
1772932657371.6904,-0.0656,-0.004,-0.9817,6.081,-9.047,-1.636
1772932657387.6682,-0.0672,-0.0066,-0.9824,6.125,-8.846,-1.934
1772932657387.6682,-0.067,-0.0062,-0.9841,6.536,-8.908,-2.144
1772932657387.6682,-0.0664,-0.007,-0.9862,6.256,-9.004,-1.916
1772932657387.6682,-0.0692,-0.0101,-0.9885,6.405,-9.432,-2.013
1772932657403.4272,-0.0661,-0.0089,-0.99,6.23,-9.607,-2.118
1772932657403.4272,-0.0666,-0.0097,-0.9945,6.326,-9.957,-2.205
1772932657403.4272,-0.0641,-0.0074,-0.9962,6.317,-10.482,-2.266
1772932657403.4272,-0.0635,-0.0089,-1.0143,6.335,-11.454,-2.336
1772932657419.4744,-0.0598,-0.0082,-1.0016,6.431,-12.101,-2.336
1772932657419.4744,-0.0633,-0.0104,-0.9967,6.484,-12.512,-2.039
1772932657419.4744,-0.0666,-0.0101,-0.9914,6.912,-13.064,-2.38
1772932657419.4744,-0.069,-0.0087,-0.985,7.543,-13.309,-2.275
1772932657419.4744,-0.0748,-0.0115,-0.9769,7.893,-13.081,-2.214
1772932657434.6287,-0.0766,-0.0118,-0.9735,8.418,-12.416,-2.056
1772932657434.6287,-0.0784,-0.0107,-0.9703,8.514,-11.751,-1.899
1772932657434.6287,-0.0766,-0.0092,-0.9676,8.89,-11.121,-2.126
1772932657434.6287,-0.0794,-0.0123,-0.9615,8.636,-10.561,-2.257
1772932657451.074,-0.0784,-0.0124,-0.9627,8.207,-9.879,-2.179
1772932657451.074,-0.0772,-0.0128,-0.9629,7.997,-9.45,-2.301
1772932657451.074,-0.0772,-0.0134,-0.9651,7.394,-8.838,-2.415
1772932657467.642,-0.0773,-0.0151,-0.9664,6.886,-8.286,-2.59
1772932657467.642,-0.0629,-0.0296,-0.9651,6.475,-8.426,-2.599
1772932657467.642,-0.0783,-0.0167,-0.9668,5.924,-8.304,-2.362
1772932657467.642,-0.0803,-0.016,-0.9671,5.442,-8.033,-2.144
1772932657482.736,-0.0802,-0.0171,-0.9698,5.407,-8.216,-2.1
1772932657482.736,-0.0817,-0.0126,-0.9663,4.961,-8.05,-2.135
1772932657482.736,-0.0822,-0.0147,-0.967,4.594,-8.05,-2.38
1772932657482.736,-0.0806,-0.0146,-0.9678,4.489,-7.893,-2.021
1772932657498.497,-0.0819,-0.0126,-0.9725,4.357,-7.84,-2.275
1772932657498.497,-0.0793,-0.0124,-0.9722,4.226,-8.216,-2.345
1772932657498.497,-0.0809,-0.0132,-0.9736,4.13,-7.779,-2.275
1772932657498.497,-0.0802,-0.0129,-0.9765,4.436,-7.901,-2.38
1772932657513.7407,-0.0798,-0.0153,-0.9777,4.218,-7.954,-2.179
1772932657513.7407,-0.0798,-0.0155,-0.9742,3.946,-7.954,-2.328
1772932657513.7407,-0.0792,-0.0162,-0.976,3.981,-8.094,-1.934
1772932657513.7407,-0.0802,-0.0175,-0.9781,4.174,-8.155,-1.837
1772932657513.7407,-0.0813,-0.0191,-0.9769,4.112,-7.866,-1.934
1772932657529.3247,-0.0805,-0.0194,-0.9776,3.833,-8.129,-1.776
1772932657529.3247,-0.0819,-0.0221,-0.9754,3.911,-7.971,-1.768
1772932657529.3247,-0.0785,-0.0221,-0.9759,3.754,-7.963,-1.496
1772932657529.3247,-0.0815,-0.0226,-0.9751,3.763,-7.814,-1.312
1772932657544.9004,-0.0806,-0.0184,-0.9747,3.395,-8.085,-1.435
1772932657544.9004,-0.0808,-0.0182,-0.9752,3.377,-7.875,-1.461
1772932657544.9004,-0.0803,-0.0178,-0.9753,3.237,-7.936,-1.61
1772932657560.9463,-0.0808,-0.0143,-0.9726,3.062,-7.595,-1.619
1772932657560.9463,-0.0837,-0.0131,-0.9744,2.949,-7.647,-1.61
1772932657560.9463,-0.0812,-0.0141,-0.9757,2.896,-7.534,-1.986
1772932657560.9463,-0.0821,-0.0151,-0.9749,2.678,-7.508,-1.689
1772932657577.5137,-0.0804,-0.016,-0.9744,2.275,-7.683,-1.759
1772932657577.5137,-0.0837,-0.015,-0.9732,1.925,-7.604,-1.698
1772932657577.5137,-0.0822,-0.0173,-0.9692,1.829,-7.332,-1.715
1772932657577.5137,-0.0844,-0.0173,-0.9704,1.689,-6.895,-1.409
1772932657593.1047,-0.0831,-0.017,-0.969,1.645,-6.816,-1.347
1772932657593.1047,-0.0835,-0.0149,-0.9682,1.278,-6.65,-1.251
1772932657593.1047,-0.083,-0.014,-0.9678,1.452,-6.545,-1.4
1772932657593.1047,-0.083,-0.0137,-0.9675,1.339,-6.353,-1.365
1772932657593.1047,-0.0815,-0.0154,-0.9699,1.496,-5.994,-1.199
1772932657608.6396,-0.0825,-0.0117,-0.9837,1.356,-5.591,-1.347
1772932657608.6396,-0.0796,-0.0159,-0.9711,1.391,-5.819,-1.584
1772932657608.6396,-0.0807,-0.0132,-0.9723,1.103,-5.652,-1.584
1772932657608.6396,-0.0808,-0.0156,-0.9705,1.155,-5.442,-1.444
1772932657624.6929,-0.0819,-0.0123,-0.9751,1.269,-5.504,-1.776
1772932657624.6929,-0.0802,-0.0128,-0.9755,1.024,-5.329,-1.549
1772932657624.6929,-0.0809,-0.0132,-0.9751,1.076,-5.434,-1.706
1772932657624.6929,-0.0825,-0.0118,-0.9793,1.129,-5.679,-1.269
1772932657641.2312,-0.0806,-0.0112,-0.9848,1.181,-5.915,-1.75
1772932657641.2312,-0.0808,-0.0101,-0.9893,1.496,-6.186,-1.619
1772932657641.2312,-0.081,-0.0063,-0.9946,1.89,-6.668,-1.732
1772932657641.2312,-0.0827,-0.0094,-0.9961,2.406,-7.402,-1.619
1772932657656.2651,-0.0805,-0.0085,-0.9954,3.062,-8.12,-1.715
1772932657656.2651,-0.0783,-0.0087,-0.9911,3.474,-8.234,-1.732
1772932657656.2651,-0.0804,-0.011,-0.985,3.675,-9.012,-1.951
1772932657672.3303,-0.0791,-0.0145,-0.9776,3.36,-9.152,-1.811
1772932657672.3303,-0.0797,-0.0174,-0.9733,3.019,-8.479,-1.54
1772932657672.3303,-0.0789,-0.0199,-0.969,2.013,-8.234,-1.61
1772932657672.3303,-0.0806,-0.0256,-0.9649,1.164,-7.665,-1.698
1772932657672.3303,-0.0799,-0.0239,-0.9589,0.166,-6.912,-1.365
1772932657687.799,-0.0777,-0.0212,-0.9557,-0.411,-5.95,-1.558
1772932657687.799,-0.0773,-0.0181,-0.9573,-0.761,-5.39,-1.417
1772932657687.799,-0.0761,-0.0106,-0.9548,-0.884,-2.38,-1.19
1772932657687.799,-0.0915,-0.0074,-0.9636,-0.28,-3.342,-1.488
1772932657703.4268,-0.0816,-0.0024,-0.9704,0.438,-3.351,-1.715
1772932657703.4268,-0.0791,-0.0011,-0.9794,1.435,-3.894,-1.479
1772932657703.4268,-0.0835,-0.0012,-0.987,2.371,-4.051,-1.566
1772932657703.4268,-0.0838,-0.0043,-0.9895,2.441,-4.944,-1.627
1772932657718.643,-0.0869,-0.0067,-0.9859,2.538,-5.845,-1.636
1772932657718.643,-0.0901,-0.0151,-0.9745,2.406,-5.976,-1.61
1772932657718.643,-0.0891,-0.0172,-0.9692,2.301,-6.178,-0.971
1772932657718.643,-0.0856,-0.021,-0.9669,2.126,-5.731,-0.787
1772932657734.6118,-0.0885,-0.0224,-0.9656,1.61,-5.372,-0.621
1772932657734.6118,-0.0838,-0.0221,-0.9708,1.312,-5.162,-0.367
1772932657734.6118,-0.0817,-0.0197,-0.9792,0.569,-4.821,-0.464
1772932657734.6118,-0.0806,-0.0164,-0.9945,0.228,-5.136,-0.761
1772932657734.6118,-0.083,-0.016,-1.0105,0.158,-5.67,-0.866
1772932657750.9138,-0.0824,-0.0105,-1.0295,-0.551,-6.51,-1.312
1772932657750.9138,-0.0853,-0.0116,-1.0405,-0.709,-7.56,-1.689
1772932657766.1611,-0.09,-0.0122,-1.0404,-1.768,-8.172,-1.715
1772932657766.1611,-0.0924,-0.0082,-1.0224,-2.704,-7.718,-1.995
1772932657766.1611,-0.0962,-0.0077,-1.0072,-3.946,-6.221,-2.152
1772932657766.1611,-0.0985,-0.0074,-0.9956,-5.504,-4.603,-2.38
1772932657766.1611,-0.0999,-0.0078,-0.9847,-7.166,-1.986,-2.546
1772932657781.6218,-0.0969,-0.0069,-0.9736,-7.534,-0.971,-2.616
1772932657781.6218,-0.0949,-0.0056,-0.9623,-6.939,-0.289,-2.564
1772932657781.6218,-0.0903,-0.0076,-0.9512,-5.539,-0.665,-2.678
1772932657781.6218,-0.086,-0.0084,-0.9421,-3.876,-1.347,-2.66
1772932657797.769,-0.0839,-0.0126,-0.9348,-0.963,-3.395,-2.301
1772932657797.769,-0.0808,-0.0187,-0.93,1.129,-5.031,-2.135
1772932657797.769,-0.0818,-0.0166,-0.9322,2.791,-6.291,-1.68
1772932657797.769,-0.0794,-0.0187,-0.9382,4.541,-7.018,-1.365
1772932657813.2178,-0.077,-0.0169,-0.9475,5.574,-7.796,-1.312
1772932657813.2178,-0.0791,-0.0158,-0.9595,6.737,-8.181,-1.208
1772932657813.2178,-0.0758,-0.0087,-0.9794,6.912,-8.479,-1.251
1772932657813.2178,-0.0742,-0.0027,-0.989,7.0,-8.514,-1.575
1772932657828.4058,-0.072,-0.0001,-0.9993,6.947,-9.214,-1.304
1772932657828.4058,-0.0734,0.005,-1.0111,6.344,-9.651,-1.925
1772932657828.4058,-0.0738,0.0084,-1.0138,5.889,-10.307,-2.223
1772932657843.9937,-0.078,0.0115,-1.0158,4.725,-11.174,-2.433
1772932657843.9937,-0.0935,0.0139,-1.0122,3.859,-11.699,-2.616
1772932657843.9937,-0.0762,0.0117,-1.0049,3.115,-11.629,-2.721
1772932657843.9937,-0.0769,0.0107,-0.9989,2.511,-11.559,-2.931
1772932657859.625,-0.0802,0.0113,-0.9905,2.144,-11.244,-2.791
1772932657859.625,-0.0789,0.0112,-0.9845,2.231,-10.675,-2.888
1772932657859.625,-0.0813,0.0073,-0.9781,2.765,-10.036,-2.686
1772932657859.625,-0.0829,0.004,-0.9703,3.132,-8.995,-2.879
1772932657859.625,-0.0839,0.0026,-0.9711,4.069,-8.12,-2.844
1772932657875.085,-0.0838,-0.0005,-0.9692,4.769,-7.683,-2.433
1772932657875.085,-0.082,-0.002,-0.9739,5.504,-6.956,-2.406
1772932657875.085,-0.0828,-0.0019,-0.9758,5.933,-6.869,-2.572
1772932657875.085,-0.0828,-0.0023,-0.9783,6.449,-6.589,-2.538
1772932657890.5537,-0.0828,-0.0061,-0.9789,7.122,-6.974,-2.651
1772932657890.5537,-0.0805,-0.0092,-0.9878,7.359,-7.595,-2.643
1772932657890.5537,-0.0811,-0.0135,-0.9809,7.77,-7.928,-2.38
1772932657890.5537,-0.0797,-0.0184,-0.9815,7.875,-8.4,-2.476
1772932657906.1482,-0.0818,-0.0209,-0.9795,7.919,-8.461,-2.144
1772932657906.1482,-0.0833,-0.022,-0.9767,7.928,-8.846,-1.715
1772932657906.1482,-0.0849,-0.0244,-0.9745,7.84,-8.811,-1.269
1772932657921.3132,-0.0828,-0.0209,-0.9744,7.971,-8.986,-1.269
1772932657921.3132,-0.0866,-0.0205,-0.971,7.726,-8.864,-1.006
1772932657921.3132,-0.09,-0.0182,-0.9694,7.516,-8.505,-1.208
1772932657921.3132,-0.0905,-0.0185,-0.9655,7.201,-8.339,-1.47
1772932657937.38,-0.0916,-0.0172,-0.9649,6.851,-7.604,-1.321
1772932657937.38,-0.0949,-0.017,-0.9653,6.247,-7.228,-1.356
1772932657937.38,-0.0938,-0.0173,-0.9639,5.933,-6.388,-1.96
1772932657937.38,-0.0969,-0.0176,-0.9626,5.294,-6.186,-1.995
1772932657937.38,-0.0967,-0.0168,-0.9653,4.856,-5.854,-2.056
1772932657953.4448,-0.0967,-0.0187,-0.9644,4.279,-6.02,-2.047
1772932657953.4448,-0.0999,-0.0165,-0.969,4.051,-5.504,-2.135
1772932657953.4448,-0.0967,-0.0176,-0.9706,3.614,-5.495,-2.144
1772932657953.4448,-0.0975,-0.017,-0.9706,3.71,-5.758,-1.794
1772932657969.004,-0.0968,-0.0159,-0.972,3.64,-5.723,-1.82
1772932657969.004,-0.0969,-0.014,-0.9701,3.719,-6.046,-1.82
1772932657969.004,-0.0965,-0.0121,-0.9714,3.701,-5.924,-1.698
1772932657969.004,-0.0948,-0.0121,-0.9678,3.902,-6.221,-1.89
1772932657984.6267,-0.0949,-0.0124,-0.9659,3.938,-5.906,-1.811
1772932657984.6267,-0.1085,-0.0099,-0.9694,3.754,-5.933,-1.837
1772932657984.6267,-0.0946,-0.0124,-0.9678,3.658,-6.143,-1.829
1772932657984.6267,-0.0934,-0.0135,-0.9747,3.806,-5.74,-1.934
1772932657999.7883,-0.092,-0.0139,-0.9766,3.763,-5.749,-2.152
1772932657999.7883,-0.093,-0.0131,-0.9776,3.518,-5.985,-2.144
1772932657999.7883,-0.0906,-0.0135,-0.9804,3.482,-6.143,-2.284
1772932658014.9282,-0.0923,-0.0131,-0.9842,3.833,-6.405,-2.196
1772932658014.9282,-0.091,-0.0133,-0.9858,3.369,-6.878,-2.056
1772932658014.9282,-0.0946,-0.0122,-0.9895,3.491,-7.376,-2.179
1772932658014.9282,-0.0938,-0.0104,-0.9904,3.658,-7.604,-2.126
1772932658030.5312,-0.0948,-0.0112,-0.9907,3.701,-7.779,-2.249
1772932658030.5312,-0.0947,-0.0093,-0.9919,4.147,-7.884,-1.969
1772932658030.5312,-0.0964,-0.0102,-0.9869,4.428,-8.146,-2.38
1772932658030.5312,-0.096,-0.0098,-0.9884,4.576,-8.12,-2.083
1772932658030.5312,-0.0976,-0.0107,-0.9889,4.918,-8.181,-2.074
1772932658045.6804,-0.0935,-0.0104,-0.9899,5.119,-8.216,-2.275
1772932658045.6804,-0.0914,-0.0115,-0.9902,5.591,-8.759,-2.502
1772932658045.6804,-0.0911,-0.0138,-0.9922,5.897,-9.117,-2.389
1772932658045.6804,-0.0903,-0.0143,-0.9931,6.072,-9.467,-2.529
1772932658061.6064,-0.0889,-0.0142,-0.9926,6.484,-10.098,-2.467
1772932658061.6064,-0.09,-0.0145,-0.995,6.405,-10.596,-2.572
1772932658061.6064,-0.0894,-0.0173,-0.994,6.353,-11.384,-2.433
1772932658076.2551,-0.0891,-0.0172,-0.9925,6.554,-11.795,-2.459
1772932658076.2551,-0.0906,-0.0174,-0.9921,6.431,-12.171,-2.678
1772932658076.2551,-0.0911,-0.0175,-0.9869,6.099,-12.574,-2.45
1772932658076.2551,-0.0912,-0.0204,-0.9833,5.906,-12.381,-2.397
1772932658092.3433,-0.0898,-0.0207,-0.9832,5.582,-12.46,-2.45
1772932658092.3433,-0.091,-0.0198,-0.9818,5.836,-12.268,-2.511
1772932658092.3433,-0.0887,-0.0196,-0.9779,5.303,-12.521,-2.914
1772932658092.3433,-0.0929,-0.0214,-0.9755,4.883,-12.023,-2.502
1772932658107.8435,-0.0935,-0.0219,-0.9704,4.567,-11.988,-2.853
1772932658107.8435,-0.1083,-0.0199,-0.9692,4.349,-11.113,-2.555
1772932658107.8435,-0.0958,-0.0182,-0.9725,4.183,-11.043,-2.651
1772932658107.8435,-0.096,-0.0189,-0.9688,4.077,-10.29,-2.686
1772932658123.9368,-0.0953,-0.0162,-0.969,4.174,-10.246,-2.424
1772932658123.9368,-0.0955,-0.0152,-0.9692,4.261,-10.115,-2.328
1772932658123.9368,-0.093,-0.0162,-0.9723,4.848,-9.949,-2.424
1772932658123.9368,-0.0934,-0.0146,-0.9709,4.673,-9.643,-2.31
1772932658123.9368,-0.0959,-0.0149,-0.9676,4.944,-9.634,-1.986
1772932658139.5254,-0.0968,-0.0142,-0.9664,4.681,-9.196,-1.978
1772932658139.5254,-0.0972,-0.0151,-0.9682,4.769,-9.214,-2.284
1772932658155.0576,-0.0988,-0.0142,-0.968,4.629,-9.109,-2.292
1772932658155.0576,-0.1011,-0.0159,-0.9663,4.428,-8.82,-2.161
1772932658155.0576,-0.1005,-0.0167,-0.9675,4.034,-8.645,-2.371
1772932658155.0576,-0.1,-0.0157,-0.9674,4.104,-8.496,-2.485
1772932658155.0576,-0.1008,-0.0181,-0.9688,3.938,-8.085,-2.336
1772932658170.5996,-0.1016,-0.0167,-0.9684,3.719,-7.98,-2.678
1772932658170.5996,-0.1018,-0.0178,-0.9727,3.999,-7.822,-2.678
1772932658170.5996,-0.1002,-0.0177,-0.9717,3.806,-7.901,-2.433
1772932658170.5996,-0.0984,-0.0168,-0.9787,3.78,-7.718,-2.721
1772932658185.9465,-0.101,-0.0186,-0.9794,3.631,-8.172,-2.87
1772932658185.9465,-0.1016,-0.0196,-0.9783,3.763,-8.234,-2.494
1772932658185.9465,-0.1019,-0.0225,-0.9773,3.413,-8.461,-2.809
1772932658185.9465,-0.1039,-0.0214,-0.9778,3.561,-8.523,-2.809
1772932658201.5996,-0.1065,-0.0209,-0.9726,3.666,-8.374,-2.643
1772932658201.5996,-0.105,-0.0236,-0.976,3.447,-8.584,-2.721
1772932658201.5996,-0.1077,-0.0267,-0.9723,3.526,-8.216,-2.704
1772932658201.5996,-0.1079,-0.0235,-0.9722,3.167,-7.989,-2.634
1772932658217.6448,-0.1066,-0.0281,-0.9689,2.914,-7.744,-2.223
1772932658217.6448,-0.1067,-0.029,-0.9696,2.607,-7.577,-2.38
1772932658217.6448,-0.1048,-0.03,-0.9762,2.354,-7.254,-2.345
1772932658233.0244,-0.1066,-0.0292,-0.9733,2.021,-7.639,-2.257
1772932658233.0244,-0.1072,-0.0285,-0.9752,1.855,-7.332,-2.362
1772932658233.0244,-0.1071,-0.0295,-0.9751,1.663,-7.735,-2.292
1772932658233.0244,-0.1074,-0.0274,-0.9765,1.715,-7.508,-2.31
1772932658233.0244,-0.1087,-0.0288,-0.9758,1.829,-7.77,-2.397
1772932658248.5925,-0.108,-0.0259,-0.9758,1.89,-7.744,-2.231
1772932658248.5925,-0.1086,-0.0253,-0.9781,1.864,-7.525,-2.047
1772932658248.5925,-0.11,-0.0224,-0.9771,2.126,-7.91,-2.144
1772932658248.5925,-0.1074,-0.0209,-0.9758,2.319,-8.068,-2.345
1772932658263.775,-0.1076,-0.0199,-0.9758,2.502,-7.928,-1.925
1772932658263.775,-0.1099,-0.0187,-0.9744,2.406,-7.997,-2.021
1772932658263.775,-0.1083,-0.0211,-0.9748,2.59,-7.814,-2.152
1772932658263.775,-0.1092,-0.0193,-0.9722,2.459,-7.787,-1.899
1772932658279.3645,-0.1104,-0.0191,-0.9705,2.695,-7.621,-1.855
1772932658279.3645,-0.1105,-0.0192,-0.9685,2.607,-7.647,-1.829
1772932658279.3645,-0.1089,-0.0156,-0.9667,2.599,-7.438,-1.864
1772932658279.3645,-0.109,-0.0191,-0.9692,2.581,-7.429,-1.785
1772932658295.229,-0.1057,-0.0155,-0.9695,2.73,-7.298,-2.152
1772932658295.229,-0.1072,-0.0173,-0.9701,2.879,-7.394,-1.934
1772932658295.229,-0.1064,-0.0172,-0.97,2.564,-7.096,-2.118
1772932658310.8096,-0.1094,-0.0187,-0.9712,2.756,-7.21,-2.17
1772932658310.8096,-0.1059,-0.0188,-0.969,2.8,-7.122,-2.319
1772932658310.8096,-0.1058,-0.0187,-0.9734,2.826,-7.026,-2.03
1772932658310.8096,-0.1047,-0.0213,-0.9704,2.8,-7.009,-1.978
1772932658325.9604,-0.1047,-0.0212,-0.9736,2.625,-7.359,-2.021
1772932658325.9604,-0.1034,-0.0233,-0.974,2.502,-7.429,-1.951
1772932658325.9604,-0.1053,-0.0253,-0.9717,2.8,-7.332,-1.89
1772932658325.9604,-0.105,-0.0239,-0.9725,2.625,-7.429,-1.951
1772932658325.9604,-0.1055,-0.0228,-0.9763,2.678,-7.508,-1.96
1772932658341.1865,-0.1058,-0.0217,-0.9753,2.712,-7.394,-1.776
1772932658341.1865,-0.1086,-0.0247,-0.9755,2.625,-7.63,-1.846
1772932658341.1865,-0.1049,-0.0204,-0.975,2.678,-7.822,-1.846
1772932658341.1865,-0.1075,-0.0223,-0.9775,2.774,-7.893,-1.505
1772932658357.3494,-0.1069,-0.0207,-0.9764,2.643,-7.945,-1.461
1772932658357.3494,-0.1069,-0.0228,-0.977,2.546,-7.901,-1.584
1772932658357.3494,-0.1067,-0.0223,-0.9742,2.433,-8.041,-1.601
1772932658357.3494,-0.1044,-0.0203,-0.9758,2.441,-7.971,-1.575
1772932658372.9463,-0.1093,-0.0194,-0.9744,2.275,-8.137,-1.505
1772932658372.9463,-0.1068,-0.0176,-0.9745,2.467,-7.691,-1.426
1772932658372.9463,-0.1094,-0.0195,-0.973,2.809,-7.63,-1.479
1772932658388.5098,-0.1112,-0.0174,-0.9545,2.476,-7.499,-1.514
1772932658388.5098,-0.1119,-0.0176,-0.969,2.581,-7.14,-1.68
1772932658388.5098,-0.1112,-0.0165,-0.9707,2.669,-6.912,-1.794
1772932658388.5098,-0.1127,-0.0188,-0.9706,2.52,-6.991,-1.645
1772932658404.0667,-0.1114,-0.0169,-0.9692,2.476,-6.659,-1.663
1772932658404.0667,-0.1097,-0.0182,-0.9719,2.651,-6.536,-1.627
1772932658404.0667,-0.111,-0.0174,-0.9737,2.564,-6.641,-1.776
1772932658404.0667,-0.1086,-0.0165,-0.9688,2.572,-6.265,-1.619
1772932658404.0667,-0.106,-0.0183,-0.9703,2.424,-6.449,-1.61
1772932658420.6514,-0.1115,-0.0186,-0.9697,2.564,-6.414,-1.575
1772932658420.6514,-0.1095,-0.0171,-0.9708,2.59,-6.361,-1.934
1772932658420.6514,-0.1102,-0.0188,-0.9696,2.52,-6.099,-1.846
1772932658420.6514,-0.1109,-0.0182,-0.9704,2.59,-6.265,-1.741
1772932658436.2375,-0.1136,-0.0204,-0.9668,2.424,-5.985,-1.671
1772932658436.2375,-0.1133,-0.0203,-0.9687,2.581,-5.906,-2.039
1772932658436.2375,-0.1132,-0.0187,-0.9695,2.424,-6.003,-1.829
1772932658436.2375,-0.1124,-0.0187,-0.9725,2.45,-5.775,-1.768
1772932658452.2927,-0.1132,-0.0187,-0.9747,2.485,-6.151,-1.636
1772932658452.2927,-0.1126,-0.0181,-0.9758,2.406,-5.994,-1.75
1772932658452.2927,-0.1118,-0.0181,-0.976,2.319,-6.204,-1.864
1772932658452.2927,-0.1118,-0.0185,-0.9793,2.494,-6.598,-1.768
1772932658467.8608,-0.1108,-0.0182,-0.981,2.704,-6.589,-1.846
1772932658467.8608,-0.1122,-0.0192,-0.9777,2.66,-6.606,-1.899
1772932658467.8608,-0.1114,-0.0186,-0.9795,2.511,-6.939,-1.934
1772932658483.936,-0.1103,-0.0203,-0.9773,2.572,-6.991,-2.17
1772932658483.936,-0.1136,-0.0178,-0.9728,2.564,-7.192,-1.837
1772932658483.936,-0.113,-0.021,-0.9739,2.529,-6.799,-1.89
1772932658483.936,-0.1116,-0.0192,-0.9727,2.502,-6.659,-1.829
1772932658483.936,-0.1128,-0.0177,-0.9689,2.389,-6.624,-1.96
1772932658499.5286,-0.1149,-0.0196,-0.9686,2.581,-6.265,-1.881
1772932658499.5286,-0.1154,-0.0199,-0.9673,2.502,-6.361,-1.855
1772932658499.5286,-0.1139,-0.0182,-0.9668,2.502,-5.915,-1.986
1772932658499.5286,-0.1142,-0.0207,-0.9691,2.643,-5.714,-2.047
1772932658515.156,-0.116,-0.021,-0.9662,2.616,-5.381,-1.934
1772932658515.156,-0.1158,-0.0206,-0.969,2.616,-5.206,-1.864
1772932658515.156,-0.1135,-0.0209,-0.9683,2.389,-5.162,-2.152
1772932658515.156,-0.1139,-0.0201,-0.9694,2.083,-4.979,-1.969
1772932658531.075,-0.113,-0.0203,-0.9686,2.275,-4.944,-1.89
1772932658531.075,-0.1143,-0.0196,-0.9711,2.284,-4.83,-1.907
1772932658531.075,-0.1128,-0.0198,-0.9753,2.118,-4.804,-1.881
1772932658531.075,-0.1152,-0.0188,-0.9773,2.188,-5.101,-2.004
1772932658546.2996,-0.1124,-0.0182,-0.9812,2.328,-5.25,-1.907
1772932658546.2996,-0.113,-0.0179,-0.9879,2.599,-5.513,-2.161
1772932658546.2996,-0.109,-0.0156,-0.995,2.984,-6.475,-2.179
1772932658546.2996,-0.1089,-0.0136,-0.9995,3.491,-7.166,-2.397
1772932658546.2996,-0.1089,-0.0132,-1.0024,3.92,-7.674,-2.354
1772932658561.5173,-0.111,-0.0125,-0.9995,4.436,-9.082,-2.31
1772932658561.5173,-0.1087,-0.0136,-0.9978,4.918,-9.704,-2.494
1772932658577.6418,-0.1118,-0.0153,-0.9933,5.338,-10.797,-2.328
1772932658577.6418,-0.1103,-0.0198,-0.9859,5.32,-10.938,-1.96
1772932658577.6418,-0.1132,-0.0226,-0.9798,5.136,-11.078,-2.135
1772932658577.6418,-0.1114,-0.0224,-0.9726,4.664,-10.588,-2.161
1772932658577.6418,-0.1114,-0.0262,-0.9677,3.421,-10.019,-1.873
1772932658593.159,-0.1101,-0.0246,-0.9587,2.511,-8.916,-1.461
1772932658593.159,-0.1105,-0.0253,-0.9529,1.942,-8.225,-1.61
1772932658593.159,-0.1088,-0.0249,-0.9471,1.531,-6.991,-1.19
1772932658593.159,-0.1083,-0.0188,-0.9471,0.971,-6.134,-1.549
1772932658608.6873,-0.1076,-0.014,-0.9521,1.173,-4.83,-1.531
1772932658608.6873,-0.1097,-0.0099,-0.9588,2.1,-4.454,-1.601
1772932658608.6873,-0.1098,-0.0074,-0.9709,2.73,-4.384,-1.986
1772932658608.6873,-0.1109,-0.009,-0.9772,3.456,-4.445,-2.205
1772932658624.2576,-0.1169,-0.0116,-0.9754,3.71,-5.241,-2.223
1772932658624.2576,-0.1163,-0.0146,-0.9729,3.789,-5.478,-2.109
1772932658624.2576,-0.1208,-0.0191,-0.9682,3.64,-5.819,-1.785
1772932658624.2576,-0.1211,-0.0249,-0.961,3.211,-5.276,-1.68
1772932658639.5671,-0.1225,-0.0271,-0.9578,3.098,-5.031,-1.076
1772932658639.5671,-0.1225,-0.0292,-0.9601,2.966,-4.664,-0.927
1772932658639.5671,-0.1213,-0.0289,-0.9611,2.572,-4.279,-0.84
1772932658654.7324,-0.1215,-0.028,-0.9682,2.502,-4.314,-0.726
1772932658654.7324,-0.1214,-0.0268,-0.9755,2.476,-4.506,-0.787
1772932658654.7324,-0.1208,-0.0256,-0.988,1.942,-4.638,-0.849
1772932658654.7324,-0.1201,-0.0197,-1.0045,1.855,-5.162,-0.927
1772932658654.7324,-0.1213,-0.0176,-1.018,1.837,-5.81,-1.208
1772932658670.315,-0.1209,-0.0185,-1.0199,1.426,-6.081,-1.216
1772932658670.315,-0.1227,-0.0165,-1.0164,0.682,-6.099,-1.627
1772932658670.315,-0.1249,-0.0165,-1.0037,0.438,-5.128,-1.715
1772932658670.315,-0.1251,-0.0169,-0.9928,0.0,-3.885,-1.873
1772932658685.9753,-0.1235,-0.0155,-0.9792,-0.542,-2.896,-1.873
1772932658685.9753,-0.1235,-0.0178,-0.9759,-0.901,-2.231,-1.724
1772932658685.9753,-0.1205,-0.019,-0.9715,-1.208,-1.802,-1.61
1772932658685.9753,-0.12,-0.0218,-0.9697,-0.823,-2.721,-1.698
1772932658701.782,-0.1128,-0.0265,-0.9651,-0.254,-3.579,-1.479
1772932658701.782,-0.1083,-0.0286,-0.9676,0.158,-5.093,-1.269
1772932658701.782,-0.108,-0.0307,-0.9612,0.823,-6.711,-1.321
1772932658701.782,-0.1054,-0.0304,-0.9614,1.103,-7.411,-1.129
1772932658717.353,-0.1061,-0.0295,-0.9617,1.96,-8.523,-0.805
1772932658717.353,-0.1057,-0.0289,-0.9567,2.485,-9.065,-0.91
1772932658717.353,-0.1038,-0.026,-0.9576,2.896,-9.415,-1.024
1772932658732.7795,-0.1064,-0.0216,-0.9567,3.071,-9.398,-1.225
1772932658732.7795,-0.1096,-0.0163,-0.9586,3.544,-9.258,-1.479
1772932658732.7795,-0.1099,-0.012,-0.9651,4.086,-9.109,-1.627
1772932658732.7795,-0.11,-0.0081,-0.965,4.226,-8.794,-1.89
1772932658748.3564,-0.1107,-0.0041,-0.9736,4.112,-8.304,-2.135
1772932658748.3564,-0.1074,-0.0019,-0.9765,4.209,-7.963,-2.091
1772932658748.3564,-0.1095,-0.0013,-0.977,4.174,-7.709,-2.083
1772932658748.3564,-0.1092,-0.0032,-0.9815,3.824,-7.709,-2.1
1772932658748.3564,-0.1108,-0.0013,-0.9769,3.596,-7.438,-1.951
1772932658763.9153,-0.1092,-0.0019,-0.9752,3.272,-6.93,-1.768
1772932658763.9153,-0.1109,-0.0037,-0.9708,2.826,-6.965,-1.627
1772932658763.9153,-0.1149,-0.0102,-0.9698,2.459,-6.641,-1.732
1772932658763.9153,-0.1181,-0.0111,-0.9666,2.319,-5.688,-1.4
1772932658779.507,-0.1177,-0.0122,-0.9622,2.433,-5.381,-1.531
1772932658779.507,-0.1187,-0.0154,-0.9645,2.188,-4.769,-1.435
1772932658779.507,-0.1204,-0.0156,-0.9654,2.52,-2.31,-1.409
1772932658779.507,-0.1177,-0.0206,-0.9668,2.678,-4.349,-1.339
1772932658795.09,-0.1156,-0.0179,-0.9726,2.555,-4.016,-1.155
1772932658795.09,-0.1143,-0.0182,-0.9731,2.643,-4.051,-1.304
1772932658795.09,-0.1113,-0.0174,-0.9755,2.783,-4.287,-1.479
1772932658810.789,-0.1104,-0.0155,-0.978,3.141,-4.874,-1.47
1772932658810.789,-0.1081,-0.0156,-0.9794,3.141,-5.197,-1.627
1772932658810.789,-0.1075,-0.0142,-0.9777,3.509,-5.941,-1.601
1772932658810.789,-0.11,-0.0128,-0.9785,3.255,-5.915,-1.514
1772932658826.3442,-0.1078,-0.0121,-0.9812,3.482,-6.178,-1.698
1772932658826.3442,-0.1089,-0.0145,-0.9781,3.518,-6.615,-1.934
1772932658826.3442,-0.1141,-0.0167,-0.9781,3.666,-6.799,-1.496
1772932658826.3442,-0.1175,-0.0152,-0.9758,3.902,-6.965,-1.566
1772932658826.3442,-0.1183,-0.0176,-0.9785,3.509,-6.606,-1.636
1772932658842.4204,-0.1183,-0.0165,-0.9748,3.579,-6.431,-1.741
1772932658842.4204,-0.1219,-0.0157,-0.9758,3.71,-6.309,-1.776
1772932658842.4204,-0.1238,-0.0178,-0.9735,3.404,-6.151,-1.759
1772932658842.4204,-0.1244,-0.0199,-0.9733,3.491,-6.072,-1.802
1772932658858.478,-0.1252,-0.0166,-0.9777,3.386,-5.933,-1.785
1772932658858.478,-0.1239,-0.0192,-0.9783,3.15,-5.976,-1.82
1772932658858.478,-0.1219,-0.0213,-0.9795,3.22,-6.055,-1.732
1772932658858.478,-0.1188,-0.0221,-0.984,3.001,-6.081,-1.768
1772932658874.3154,-0.1162,-0.0235,-0.983,3.001,-6.562,-1.619
1772932658874.3154,-0.1167,-0.0236,-0.9823,2.756,-6.904,-1.768
1772932658874.3154,-0.1149,-0.0239,-0.9823,2.896,-7.306,-1.706
1772932658874.3154,-0.1133,-0.0262,-0.9803,2.853,-7.586,-1.488
1772932658890.892,-0.1135,-0.0246,-0.9765,2.966,-7.438,-1.671
1772932658890.892,-0.1139,-0.0224,-0.9757,2.993,-7.787,-1.706
1772932658890.892,-0.1148,-0.0225,-0.9712,2.888,-7.604,-1.68
1772932658890.892,-0.1189,-0.0215,-0.9684,2.748,-7.525,-1.654
1772932658890.892,-0.1166,-0.0222,-0.9696,2.59,-7.438,-1.671
1772932658906.143,-0.1184,-0.0198,-0.9686,2.004,-6.816,-1.741
1772932658906.143,-0.1223,-0.0163,-0.9714,2.109,-7.044,-1.75
1772932658921.7468,-0.122,-0.0145,-0.9764,2.074,-6.991,-1.715
1772932658921.7468,-0.1202,-0.0121,-0.9796,2.135,-7.332,-1.61
1772932658921.7468,-0.1202,-0.0126,-0.9872,2.109,-7.525,-1.811
1772932658921.7468,-0.1225,-0.0115,-0.9887,2.065,-7.787,-1.802
1772932658921.7468,-0.1224,-0.0132,-0.9916,2.441,-8.732,-2.021
1772932658937.4248,-0.1234,-0.0118,-0.9895,2.66,-8.873,-1.776
1772932658937.4248,-0.1213,-0.0165,-0.9838,2.774,-9.161,-1.558
1772932658937.4248,-0.122,-0.0174,-0.9802,2.704,-8.925,-1.584
1772932658937.4248,-0.122,-0.0176,-0.9774,2.817,-9.214,-1.75
1772932658952.6892,-0.1185,-0.0188,-0.9742,2.765,-8.391,-1.619
1772932658952.6892,-0.1191,-0.0213,-0.9712,2.66,-8.251,-1.19
1772932658952.6892,-0.1182,-0.0235,-0.9712,2.984,-7.936,-1.173
1772932658952.6892,-0.1185,-0.0212,-0.9714,2.826,-7.149,-1.129
1772932658968.4365,-0.1172,-0.0243,-0.969,2.949,-7.534,-1.146
1772932658968.4365,-0.1164,-0.0267,-0.9708,3.089,-7.166,-1.032
1772932658968.4365,-0.118,-0.0268,-0.9695,2.914,-7.131,-1.417
1772932658968.4365,-0.118,-0.0245,-0.9698,2.896,-6.895,-1.05
1772932658984.606,-0.1208,-0.0239,-0.9677,2.634,-6.772,-1.19
1772932658984.606,-0.1183,-0.0197,-0.9673,2.8,-7.21,-1.216
1772932658984.606,-0.1207,-0.0216,-0.9676,2.485,-6.764,-1.041
1772932658984.606,-0.1222,-0.0215,-0.9681,2.188,-6.886,-1.374
1772932658984.606,-0.1192,-0.0183,-0.9661,2.126,-6.668,-1.216
1772932658999.854,-0.1181,-0.017,-0.9678,1.934,-6.589,-1.312
1772932658999.854,-0.1163,-0.0174,-0.9689,1.864,-6.834,-1.164
1772932658999.854,-0.1165,-0.0181,-0.9714,1.61,-6.851,-1.286
1772932659015.157,-0.1174,-0.0181,-0.9681,1.54,-6.86,-0.963
1772932659015.157,-0.1153,-0.0168,-0.9681,1.321,-6.904,-1.164
1772932659015.157,-0.1164,-0.0175,-0.97,1.558,-7.367,-0.954
1772932659015.157,-0.1168,-0.0159,-0.9693,1.75,-6.772,-1.199
1772932659030.6055,-0.1136,-0.0185,-0.9701,1.663,-6.991,-1.137
1772932659030.6055,-0.1176,-0.0188,-0.9684,1.873,-7.0,-1.208
1772932659030.6055,-0.1181,-0.0184,-0.9697,2.179,-6.711,-1.041
1772932659030.6055,-0.119,-0.0135,-0.967,2.336,-6.947,-0.831
1772932659046.3098,-0.1189,-0.0144,-0.9655,2.397,-6.816,-1.032
1772932659046.3098,-0.121,-0.0129,-0.9622,2.546,-6.423,-1.155
1772932659046.3098,-0.1245,-0.0156,-0.9588,2.205,-6.16,-1.12
1772932659046.3098,-0.1247,-0.0151,-0.9575,2.118,-5.775,-1.269
1772932659062.9128,-0.1258,-0.016,-0.9555,2.074,-5.136,-1.19
1772932659062.9128,-0.1262,-0.0176,-0.9567,1.907,-4.856,-1.208
1772932659062.9128,-0.129,-0.0185,-0.9553,1.706,-4.41,-1.216
1772932659062.9128,-0.1266,-0.0209,-0.9581,1.811,-3.658,-1.067
1772932659062.9128,-0.1245,-0.0209,-0.9647,1.899,-3.439,-0.831
1772932659078.6418,-0.121,-0.0189,-0.9672,2.047,-3.526,-0.569
1772932659078.6418,-0.121,-0.0206,-0.9728,2.004,-3.553,-0.849
1772932659078.6418,-0.121,-0.0184,-0.9745,2.345,-3.736,-0.77
1772932659094.1013,-0.1213,-0.0205,-0.9805,2.275,-3.946,-0.744
1772932659094.1013,-0.119,-0.0192,-0.9794,2.223,-4.226,-1.015
1772932659094.1013,-0.12,-0.0171,-0.9805,2.38,-4.673,-1.05
1772932659094.1013,-0.1207,-0.0187,-0.9805,2.1,-4.795,-1.164
1772932659109.5122,-0.1214,-0.0196,-0.9797,2.196,-5.495,-1.05
1772932659109.5122,-0.1229,-0.0172,-0.982,1.89,-5.285,-1.05
1772932659109.5122,-0.1211,-0.019,-0.9838,1.837,-5.661,-0.989
1772932659109.5122,-0.1214,-0.0182,-0.9816,1.54,-6.055,-0.927
1772932659125.1257,-0.121,-0.0153,-0.9853,1.304,-6.055,-0.796
1772932659125.1257,-0.124,-0.0138,-0.9817,1.391,-6.178,-0.875
1772932659125.1257,-0.1213,-0.0126,-0.9798,1.26,-6.274,-0.823
1772932659125.1257,-0.1238,-0.0118,-0.9826,1.137,-6.659,-0.998
1772932659140.5854,-0.1214,-0.0094,-0.9827,1.619,-6.484,-0.639
1772932659140.5854,-0.122,-0.0104,-0.9787,1.444,-6.624,-0.639
1772932659140.5854,-0.1241,-0.0067,-0.9755,1.417,-6.282,-0.963
1772932659140.5854,-0.1246,-0.0065,-0.9754,1.873,-6.606,-1.05
1772932659140.5854,-0.123,-0.0076,-0.9739,1.881,-6.274,-1.041
1772932659155.9434,-0.1254,-0.0088,-0.9696,2.188,-5.994,-1.19
1772932659155.9434,-0.1235,-0.0074,-0.9681,2.179,-5.836,-1.032
1772932659171.6191,-0.1221,-0.0063,-0.9678,2.126,-5.801,-1.234
1772932659171.6191,-0.1263,-0.0107,-0.9671,2.109,-5.329,-1.199
1772932659171.6191,-0.1249,-0.0101,-0.9674,2.257,-5.145,-1.383
1772932659171.6191,-0.1255,-0.0117,-0.9675,2.249,-4.751,-1.216
1772932659171.6191,-0.1246,-0.0127,-0.9684,2.214,-4.786,-0.936
1772932659187.6138,-0.1232,-0.0115,-0.9729,2.38,-4.874,-1.251
1772932659187.6138,-0.1224,-0.0113,-0.9722,2.555,-4.979,-1.173
1772932659187.6138,-0.1225,-0.0116,-0.9736,2.511,-5.311,-1.435
1772932659187.6138,-0.1205,-0.0101,-0.9735,3.01,-5.591,-1.295
1772932659203.0933,-0.1225,-0.0104,-0.9762,2.783,-5.81,-1.514
1772932659203.0933,-0.1215,-0.0096,-0.9769,2.94,-5.679,-1.173
1772932659203.0933,-0.1202,-0.0108,-0.9759,2.879,-5.521,-1.575
1772932659203.0933,-0.1196,-0.0097,-0.9767,2.931,-6.457,-1.776
1772932659218.3518,-0.1189,-0.0098,-0.9764,2.896,-6.886,-1.68
1772932659218.3518,-0.1186,-0.0111,-0.9752,3.01,-6.606,-1.514
1772932659218.3518,-0.1169,-0.0106,-0.9761,2.774,-6.702,-1.698
1772932659218.3518,-0.1193,-0.0125,-0.9741,3.001,-7.122,-1.488
1772932659234.891,-0.1185,-0.0126,-0.9709,2.853,-7.201,-1.706
1772932659234.891,-0.119,-0.0131,-0.9711,2.599,-6.912,-1.68
1772932659234.891,-0.1202,-0.0145,-0.9694,2.441,-6.974,-1.689
1772932659234.891,-0.1181,-0.0132,-0.9724,2.546,-6.781,-1.671
1772932659234.891,-0.1217,-0.0141,-0.9716,2.275,-6.633,-1.61
1772932659250.4783,-0.12,-0.0122,-0.974,2.24,-6.51,-1.698
1772932659250.4783,-0.1202,-0.015,-0.9695,2.179,-6.571,-1.54
1772932659250.4783,-0.1221,-0.0137,-0.9711,2.362,-6.388,-1.715
1772932659266.0542,-0.1225,-0.0135,-0.9688,2.362,-6.16,-1.802
1772932659266.0542,-0.1222,-0.0134,-0.9712,2.616,-6.151,-1.619
1772932659266.0542,-0.1229,-0.0118,-0.9723,2.511,-6.16,-1.619
1772932659266.0542,-0.1237,-0.0136,-0.9718,2.66,-5.723,-1.4
1772932659282.131,-0.1247,-0.0132,-0.9726,2.555,-5.871,-1.339
1772932659282.131,-0.1249,-0.0109,-0.9734,2.765,-5.801,-1.654
1772932659282.131,-0.1243,-0.0121,-0.9716,2.66,-5.775,-1.601
1772932659282.131,-0.1232,-0.0138,-0.9741,2.607,-5.451,-1.601
1772932659297.6765,-0.1222,-0.0115,-0.9708,2.94,-5.784,-1.304
1772932659297.6765,-0.1218,-0.0128,-0.9745,2.748,-5.46,-1.365
1772932659297.6765,-0.1206,-0.0132,-0.9737,2.739,-5.635,-1.374
1772932659297.6765,-0.121,-0.0144,-0.9726,2.599,-5.67,-1.417
1772932659312.8403,-0.1221,-0.0124,-0.9729,2.94,-5.723,-1.444
1772932659312.8403,-0.1219,-0.012,-0.9747,2.739,-5.469,-1.531
1772932659312.8403,-0.1238,-0.012,-0.9743,2.616,-5.582,-1.409
1772932659312.8403,-0.1221,-0.0129,-0.9775,2.581,-5.652,-1.593
1772932659312.8403,-0.1207,-0.011,-0.9758,2.564,-5.705,-1.488
1772932659328.498,-0.1229,-0.0112,-0.9765,2.476,-6.029,-1.698
1772932659328.498,-0.1215,-0.012,-0.9812,2.345,-6.143,-1.732
1772932659328.498,-0.1218,-0.0134,-0.9799,2.546,-6.256,-1.601
1772932659344.0403,-0.123,-0.0122,-0.9781,2.625,-6.379,-1.584
1772932659344.0403,-0.1246,-0.011,-0.9781,2.538,-6.781,-1.409
1772932659344.0403,-0.1222,-0.0121,-0.9772,2.765,-6.921,-1.584
1772932659344.0403,-0.1222,-0.0108,-0.9773,2.546,-6.93,-1.566
1772932659359.5884,-0.1238,-0.0145,-0.9729,2.345,-6.676,-1.663
1772932659359.5884,-0.1241,-0.0135,-0.9723,2.275,-7.044,-1.61
1772932659359.5884,-0.1233,-0.0168,-0.9667,2.004,-6.396,-1.645
1772932659359.5884,-0.126,-0.0169,-0.9628,2.065,-6.09,-1.452
1772932659375.2698,-0.1237,-0.0148,-0.9664,1.864,-5.548,-1.54
1772932659375.2698,-0.1245,-0.016,-0.964,1.855,-5.215,-1.417
1772932659375.2698,-0.1259,-0.0154,-0.967,1.636,-4.769,-1.505
1772932659375.2698,-0.1224,-0.0155,-0.9648,1.68,-4.734,-1.54
1772932659391.3337,-0.1214,-0.0184,-0.9693,1.558,-4.979,-1.837
1772932659391.3337,-0.1233,-0.015,-0.9675,1.584,-4.497,-1.969
1772932659391.3337,-0.1252,-0.0142,-0.967,1.54,-4.524,-1.619
1772932659391.3337,-0.1232,-0.0136,-0.9686,1.365,-4.279,-1.593
1772932659391.3337,-0.1254,-0.0134,-0.9708,1.54,-4.524,-1.522
1772932659406.7961,-0.1268,-0.0109,-0.9672,1.566,-4.463,-1.584
1772932659406.7961,-0.1247,-0.0121,-0.9719,1.496,-4.489,-1.776
1772932659406.7961,-0.1265,-0.0106,-0.9738,1.654,-4.104,-1.654
1772932659406.7961,-0.1261,-0.0084,-0.9786,1.969,-4.804,-1.68
1772932659422.3574,-0.125,-0.0065,-0.988,2.336,-4.891,-1.627
1772932659422.3574,-0.1241,-0.0052,-0.9954,2.844,-5.574,-1.671
1772932659422.3574,-0.1218,-0.0043,-0.9972,3.176,-6.388,-1.452
1772932659437.5251,-0.1238,-0.0059,-0.997,3.964,-7.394,-1.89
1772932659437.5251,-0.1216,-0.0064,-0.9944,4.611,-8.006,-1.995
1772932659437.5251,-0.1221,-0.0119,-0.9884,4.734,-8.689,-1.899
1772932659437.5251,-0.1217,-0.0123,-0.9838,4.952,-9.109,-2.065
1772932659453.566,-0.1215,-0.0159,-0.9706,4.559,-9.082,-1.934
1772932659453.566,-0.1204,-0.0193,-0.962,3.587,-8.453,-1.715
1772932659453.566,-0.1191,-0.0206,-0.9574,2.756,-7.893,-1.689
1772932659453.566,-0.1136,-0.0213,-0.9539,1.68,-7.009,-1.461
1772932659468.7517,-0.1136,-0.021,-0.9516,0.805,-6.195,-1.356
1772932659468.7517,-0.1123,-0.02,-0.9523,-0.228,-5.224,-1.365
1772932659468.7517,-0.1141,-0.0152,-0.9528,-0.306,-4.235,-0.98
1772932659468.7517,-0.1179,-0.0102,-0.9615,0.044,-3.841,-1.094
1772932659484.8354,-0.1196,-0.0059,-0.9733,0.954,-3.859,-1.33
1772932659484.8354,-0.1244,-0.0024,-0.986,1.881,-4.322,-1.671
1772932659484.8354,-0.1242,-0.001,-0.996,3.421,-5.565,-1.741
1772932659484.8354,-0.1249,-0.0053,-0.9957,3.938,-6.44,-1.601
1772932659484.8354,-0.1262,-0.0062,-0.9839,4.025,-7.079,-1.33
1772932659499.5637,-0.1282,-0.0093,-0.9733,3.824,-7.289,-1.383
1772932659499.5637,-0.1293,-0.0138,-0.962,3.43,-7.018,-1.111
1772932659499.5637,-0.1271,-0.014,-0.9536,3.15,-6.668,-1.286
1772932659515.095,-0.1266,-0.011,-0.9505,2.817,-5.766,-1.05
1772932659515.095,-0.1258,-0.01,-0.9501,2.678,-5.128,-0.858
1772932659515.095,-0.1236,-0.0087,-0.9572,2.555,-4.174,-0.779
1772932659515.095,-0.1235,-0.0098,-0.9626,2.441,-3.902,-1.032
1772932659530.6465,-0.1248,-0.0076,-0.9714,2.223,-3.973,-1.173
1772932659530.6465,-0.1274,-0.0071,-0.9789,1.986,-3.833,-1.417
1772932659530.6465,-0.1308,-0.0077,-0.9925,1.619,-4.016,-1.505
1772932659530.6465,-0.1332,-0.0095,-1.0046,1.575,-3.964,-1.549
1772932659546.4485,-0.1366,-0.0088,-0.9988,1.286,-3.868,-1.514
1772932659546.4485,-0.1397,-0.0123,-0.9945,1.391,-3.465,-1.575
1772932659546.4485,-0.1357,-0.0121,-0.9873,1.278,-2.686,-1.321
1772932659546.4485,-0.1341,-0.0157,-0.985,1.216,-1.942,-1.225
1772932659563.0444,-0.133,-0.016,-0.9814,1.461,-1.584,-1.304
1772932659563.0444,-0.1292,-0.0186,-0.983,1.137,-2.091,-1.111
1772932659563.0444,-0.1247,-0.0223,-0.9794,1.059,-2.791,-1.216
1772932659563.0444,-0.1191,-0.0218,-0.9807,1.05,-4.086,-1.164
1772932659563.0444,-0.1169,-0.0239,-0.9787,0.507,-5.67,-1.593
1772932659578.6252,-0.1126,-0.0247,-0.9823,0.105,-6.86,-1.54
1772932659578.6252,-0.1132,-0.0256,-0.9814,2.013,-8.234,-1.68
1772932659594.2412,-0.115,-0.0249,-0.9784,-0.052,-9.24,-1.689
1772932659594.2412,-0.1147,-0.0188,-0.978,0.411,-10.045,-1.575
1772932659594.2412,-0.1157,-0.014,-0.9729,0.998,-10.203,-1.374
1772932659594.2412,-0.1164,-0.0095,-0.9711,1.514,-10.544,-1.444
1772932659594.2412,-0.1172,-0.0058,-0.9665,2.126,-10.482,-1.383
1772932659610.8484,-0.1179,0.0032,-0.9616,2.896,-10.15,-1.452
1772932659610.8484,-0.1182,0.006,-0.9636,3.264,-9.879,-1.593
1772932659610.8484,-0.1193,0.007,-0.9612,3.369,-9.415,-1.934
1772932659610.8484,-0.1199,0.0084,-0.9629,3.553,-8.925,-1.759
1772932659625.9863,-0.1186,0.0062,-0.9654,3.833,-8.216,-1.907
1772932659625.9863,-0.1219,0.0043,-0.965,3.885,-7.516,-2.161
1772932659625.9863,-0.1217,0.0016,-0.9659,3.859,-6.886,-2.039
1772932659625.9863,-0.1253,-0.0015,-0.9634,3.631,-6.072,-2.03
1772932659641.5762,-0.1249,-0.0048,-0.9679,3.553,-5.889,-1.768
1772932659641.5762,-0.1265,-0.0065,-0.9631,3.255,-5.495,-1.645
1772932659641.5762,-0.1261,-0.0109,-0.9632,3.071,-4.55,-1.417
1772932659641.5762,-0.1276,-0.0116,-0.9618,2.721,-4.812,-1.505
1772932659641.5762,-0.1263,-0.0134,-0.9604,2.678,-4.261,-1.706
1772932659657.3274,-0.1259,-0.0145,-0.9633,2.249,-3.902,-1.435
1772932659657.3274,-0.1248,-0.0132,-0.964,2.292,-3.666,-1.496
1772932659657.3274,-0.1226,-0.0098,-0.9608,1.811,-3.631,-1.645
1772932659657.3274,-0.1223,-0.0106,-0.9636,2.039,-3.518,-1.61
1772932659672.8901,-0.1218,-0.0097,-0.9686,2.231,-3.754,-1.794
1772932659672.8901,-0.119,-0.006,-0.9692,2.144,-3.99,-1.802
1772932659672.8901,-0.1212,-0.0087,-0.9708,2.328,-4.253,-1.636
1772932659688.4949,-0.1184,-0.0058,-0.9723,2.511,-4.576,-1.82
1772932659688.4949,-0.1197,-0.0073,-0.9755,2.546,-4.795,-1.627
1772932659688.4949,-0.1203,-0.0099,-0.9758,2.669,-5.241,-1.496
1772932659688.4949,-0.1231,-0.0101,-0.9747,2.791,-5.381,-1.383
1772932659703.7617,-0.1241,-0.0114,-0.9737,2.669,-5.617,-1.383
1772932659703.7617,-0.1239,-0.0138,-0.9712,2.783,-5.32,-1.54
1772932659703.7617,-0.1301,-0.0131,-0.9696,2.494,-5.364,-1.181
1772932659703.7617,-0.1299,-0.0143,-0.9664,2.564,-5.25,-1.216
1772932659718.9233,-0.1322,-0.0133,-0.9645,2.441,-4.428,-1.593
1772932659718.9233,-0.1318,-0.0116,-0.9626,2.459,-4.051,-1.181
1772932659718.9233,-0.1322,-0.0141,-0.9592,2.074,-3.946,-1.321
1772932659718.9233,-0.1316,-0.0109,-0.9578,1.951,-3.089,-1.225
1772932659735.0312,-0.1333,-0.0069,-0.9582,2.047,-2.844,-1.645
1772932659735.0312,-0.1318,-0.0071,-0.9617,1.907,-2.424,-1.732
1772932659735.0312,-0.1284,-0.0046,-0.9668,2.179,-2.441,-1.855
1772932659735.0312,-0.129,-0.008,-0.9678,2.257,-2.188,-1.907
1772932659735.0312,-0.128,-0.0062,-0.9754,2.678,-2.643,-1.942
1772932659750.9087,-0.1266,-0.01,-0.9781,2.73,-2.765,-1.654
1772932659750.9087,-0.1207,-0.01,-0.9742,3.098,-3.544,-1.978
1772932659750.9087,-0.1227,-0.0089,-0.9752,3.719,-3.797,-1.916
1772932659766.675,-0.1238,-0.0098,-0.975,3.623,-4.156,-1.347
1772932659766.675,-0.1218,-0.0103,-0.9713,3.911,-4.261,-1.374
1772932659766.675,-0.1245,-0.0099,-0.9715,4.025,-4.314,-1.295
1772932659766.675,-0.123,-0.0105,-0.9665,4.191,-4.305,-1.601
1772932659782.7947,-0.1268,-0.0068,-0.9645,4.244,-4.585,-1.47
1772932659782.7947,-0.1253,-0.0068,-0.9637,4.121,-4.27,-1.619
1772932659782.7947,-0.1266,-0.0067,-0.9612,4.279,-4.261,-1.732
1772932659782.7947,-0.1279,-0.0073,-0.9651,3.981,-3.946,-1.706
1772932659798.4058,-0.1252,-0.0083,-0.9694,4.174,-3.981,-1.995
1772932659798.4058,-0.126,-0.0057,-0.9706,4.366,-4.139,-2.039
1772932659798.4058,-0.1256,-0.0077,-0.9782,4.375,-4.2,-1.864
1772932659798.4058,-0.1244,-0.0071,-0.983,4.261,-4.62,-1.82
1772932659813.7563,-0.1216,-0.0097,-0.9855,4.419,-5.154,-1.689
1772932659813.7563,-0.1232,-0.0076,-0.9866,4.34,-5.442,-1.558
1772932659813.7563,-0.1215,-0.0073,-0.987,4.191,-5.548,-1.391
1772932659813.7563,-0.1212,-0.0114,-0.9834,4.463,-6.186,-1.426
1772932659813.7563,-0.1193,-0.0106,-0.984,4.366,-6.361,-1.479
1772932659829.5007,-0.1182,-0.0135,-0.9844,4.104,-6.694,-1.452
1772932659829.5007,-0.1201,-0.0131,-0.9826,4.218,-6.589,-1.435
1772932659829.5007,-0.1176,-0.0158,-0.9847,3.955,-6.65,-1.531
1772932659829.5007,-0.1174,-0.0165,-0.987,3.728,-6.641,-1.242
1772932659845.3887,-0.1199,-0.0183,-0.9847,3.797,-6.974,-1.356
1772932659845.3887,-0.1204,-0.0198,-0.9851,3.728,-6.991,-1.173
1772932659845.3887,-0.1219,-0.0202,-0.9856,3.299,-7.122,-1.242
1772932659861.5159,-0.1189,-0.0178,-0.9846,3.491,-7.394,-1.33
1772932659861.5159,-0.121,-0.0146,-0.984,3.22,-7.201,-1.173
1772932659861.5159,-0.1213,-0.0148,-0.983,3.159,-7.228,-1.067
1772932659861.5159,-0.1225,-0.0121,-0.9832,3.027,-7.604,-1.076
1772932659877.5662,-0.1215,-0.0099,-0.9813,2.888,-7.516,-1.242
1772932659877.5662,-0.1229,-0.007,-0.9791,2.853,-7.77,-1.4
1772932659877.5662,-0.1233,-0.0065,-0.9797,2.791,-7.656,-1.417
1772932659877.5662,-0.1179,-0.0068,-0.9795,2.494,-7.612,-1.26
1772932659892.9644,-0.1196,-0.007,-0.977,2.467,-7.796,-1.356
1772932659892.9644,-0.1197,-0.0078,-0.976,2.599,-7.718,-1.505
1772932659892.9644,-0.1183,-0.0089,-0.978,2.397,-7.332,-1.251
1772932659892.9644,-0.1144,-0.0092,-0.9728,2.284,-7.044,-1.365
1772932659892.9644,-0.118,-0.0098,-0.972,2.231,-6.878,-1.242
1772932659908.705,-0.1159,-0.0087,-0.9684,2.362,-6.921,-1.356
1772932659908.705,-0.1157,-0.0088,-0.9668,2.389,-6.466,-1.242
1772932659908.705,-0.1207,-0.0085,-0.9633,2.678,-6.265,-1.417
1772932659908.705,-0.1197,-0.0082,-0.9629,3.019,-5.985,-1.225
1772932659923.9475,-0.1216,-0.0081,-0.962,3.027,-5.854,-1.391
1772932659923.9475,-0.124,-0.0094,-0.9599,3.001,-5.46,-1.505
1772932659923.9475,-0.1228,-0.0093,-0.9545,2.546,-5.119,-1.356
1772932659923.9475,-0.1254,-0.0089,-0.9544,2.625,-4.664,-1.531
1772932659939.4976,-0.124,-0.0087,-0.955,2.415,-4.2,-1.417
1772932659939.4976,-0.1262,-0.0049,-0.9629,2.214,-3.833,-1.768
1772932659939.4976,-0.1282,-0.0077,-0.9673,2.336,-3.754,-1.715
1772932659955.0452,-0.1274,-0.0048,-0.9687,2.564,-3.964,-1.96
1772932659955.0452,-0.1243,-0.0049,-0.9743,2.765,-4.104,-1.942
1772932659955.0452,-0.1244,-0.0084,-0.976,2.861,-4.226,-1.916
1772932659955.0452,-0.1242,-0.0073,-0.9798,3.246,-4.567,-2.188
1772932659970.5994,-0.1229,-0.0091,-0.9856,3.185,-4.874,-2.1
1772932659970.5994,-0.1238,-0.0134,-0.9817,3.141,-4.935,-2.004
1772932659970.5994,-0.1241,-0.0143,-0.9826,3.43,-5.46,-2.074
1772932659970.5994,-0.126,-0.0148,-0.9839,3.176,-5.6,-1.776
1772932659985.5833,-0.1243,-0.0155,-0.9809,3.194,-5.915,-1.768
1772932659985.5833,-0.1257,-0.0185,-0.9822,2.905,-6.09,-1.654
1772932659985.5833,-0.125,-0.019,-0.9803,2.721,-6.344,-1.689
1772932659985.5833,-0.1255,-0.0195,-0.9758,2.905,-6.527,-1.82
1772932659985.5833,-0.126,-0.0188,-0.977,2.774,-6.781,-1.899
1772932660001.1829,-0.1252,-0.0192,-0.9718,2.651,-6.388,-1.479
1772932660001.1829,-0.1262,-0.0179,-0.9714,2.949,-6.633,-1.689
1772932660001.1829,-0.1282,-0.017,-0.964,2.993,-6.423,-1.951
1772932660001.1829,-0.1288,-0.0167,-0.9643,3.316,-6.186,-2.021
1772932660016.7703,-0.1317,-0.0166,-0.9637,3.308,-5.819,-1.96
1772932660016.7703,-0.1321,-0.0167,-0.9647,3.43,-5.197,-1.969
1772932660016.7703,-0.1303,-0.0149,-0.9637,3.728,-5.162,-2.31
1772932660031.992,-0.1306,-0.0159,-0.963,3.456,-4.646,-2.336
1772932660031.992,-0.1298,-0.018,-0.9618,3.342,-4.349,-2.284
1772932660031.992,-0.1271,-0.0187,-0.9655,2.765,-3.938,-2.17
1772932660031.992,-0.1258,-0.0194,-0.9653,2.292,-3.806,-2.152
1772932660047.5332,-0.1234,-0.019,-0.9683,1.846,-3.789,-2.021
1772932660047.5332,-0.121,-0.017,-0.9697,1.435,-3.999,-2.091
1772932660047.5332,-0.1235,-0.0152,-0.9726,1.356,-4.139,-1.855
1772932660047.5332,-0.1222,-0.0131,-0.9733,1.094,-4.76,-1.759
1772932660062.8396,-0.1185,-0.0137,-0.9764,1.067,-5.232,-1.593
1772932660062.8396,-0.1215,-0.0081,-0.9755,1.076,-5.364,-1.593
1772932660062.8396,-0.1217,-0.0092,-0.9741,0.945,-5.81,-1.627
1772932660062.8396,-0.1207,-0.0084,-0.9722,1.094,-6.256,-1.4
1772932660062.8396,-0.124,-0.0065,-0.9709,1.19,-6.388,-1.645
1772932660078.5437,-0.1227,-0.0068,-0.9708,1.26,-6.501,-1.522
1772932660078.5437,-0.1239,-0.0062,-0.9676,1.488,-6.029,-1.549
1772932660094.2146,-0.1226,-0.0068,-0.9669,1.925,-5.976,-1.496
1772932660094.2146,-0.1226,-0.0066,-0.9659,2.275,-5.862,-1.181
1772932660094.2146,-0.1257,-0.007,-0.9689,2.581,-5.53,-1.426
1772932660094.2146,-0.1207,-0.0046,-0.9665,2.861,-5.276,-1.041
1772932660094.2146,-0.1244,-0.0062,-0.9701,3.237,-5.005,-1.155
1772932660109.7227,-0.1229,-0.0039,-0.9709,3.185,-4.751,-0.866
1772932660109.7227,-0.1228,-0.0023,-0.9719,3.509,-4.865,-0.945
1772932660109.7227,-0.1224,-0.0031,-0.9731,3.736,-4.707,-0.805
1772932660109.7227,-0.1207,-0.0049,-0.9714,3.57,-4.979,-1.216
1772932660125.7986,-0.1188,-0.0044,-0.9693,3.754,-4.839,-1.129
1772932660125.7986,-0.1183,-0.0053,-0.9724,3.465,-4.874,-1.146
1772932660125.7986,-0.1209,-0.0057,-0.9722,3.334,-4.795,-1.155
1772932660125.7986,-0.1191,-0.0054,-0.9733,3.167,-4.795,-1.05
1772932660141.3628,-0.1193,-0.0046,-0.9719,2.686,-4.804,-0.954
1772932660141.3628,-0.1215,-0.0069,-0.9739,2.511,-4.716,-0.998
1772932660141.3628,-0.1206,-0.0078,-0.9761,2.616,-4.83,-0.91
1772932660141.3628,-0.1224,-0.0035,-0.9719,2.406,-4.874,-1.067
1772932660141.3628,-0.1215,-0.0056,-0.9756,2.424,-4.629,-1.032
1772932660157.4272,-0.1219,-0.0032,-0.9783,2.266,-4.567,-1.208
1772932660157.4272,-0.1218,-0.0026,-0.9762,2.03,-4.62,-1.059
1772932660157.4272,-0.1215,-0.0042,-0.9753,2.328,-4.532,-1.365
1772932660157.4272,-0.1206,-0.0032,-0.9764,1.969,-4.524,-1.47
1772932660173.0012,-0.122,-0.0036,-0.9775,1.986,-4.515,-1.304
1772932660173.0012,-0.1241,-0.0037,-0.9753,2.188,-4.532,-1.321
1772932660173.0012,-0.1208,-0.0049,-0.9744,2.424,-4.515,-1.435
1772932660188.5564,-0.1216,-0.0063,-0.9737,2.45,-4.401,-1.663
1772932660188.5564,-0.1193,-0.0076,-0.9704,2.502,-4.27,-1.479
1772932660188.5564,-0.1218,-0.0081,-0.9726,2.625,-4.209,-1.374
1772932660188.5564,-0.1223,-0.01,-0.966,2.616,-4.331,-1.435
1772932660203.8154,-0.1224,-0.0109,-0.9673,2.739,-4.034,-1.549
1772932660203.8154,-0.1203,-0.0117,-0.9648,2.809,-3.999,-1.54
1772932660203.8154,-0.1227,-0.0124,-0.9635,2.704,-3.64,-1.4
1772932660203.8154,-0.1182,-0.0129,-0.9633,2.87,-3.553,-1.461
1772932660219.3755,-0.1222,-0.0156,-0.9621,2.8,-3.36,-1.251
1772932660219.3755,-0.1229,-0.0146,-0.9631,2.485,-3.054,-1.479
1772932660219.3755,-0.1225,-0.0137,-0.9636,2.905,-3.203,-1.496
1772932660219.3755,-0.1223,-0.0137,-0.9651,2.476,-2.984,-1.444
1772932660234.9324,-0.1209,-0.0119,-0.9686,2.459,-3.01,-1.242
1772932660234.9324,-0.1215,-0.0136,-0.9698,2.152,-2.914,-1.295
1772932660234.9324,-0.1219,-0.0113,-0.9706,2.152,-3.308,-1.295
1772932660234.9324,-0.1213,-0.0107,-0.975,2.328,-3.43,-1.269
1772932660234.9324,-0.1203,-0.0102,-0.974,2.065,-3.43,-1.312
1772932660250.064,-0.12,-0.0078,-0.9792,2.459,-3.946,-1.251
1772932660250.064,-0.1206,-0.0092,-0.976,2.301,-3.868,-1.129
1772932660250.064,-0.12,-0.0111,-0.9742,2.292,-3.964,-1.146
1772932660266.0444,-0.1211,-0.0109,-0.974,2.59,-4.261,-0.945
1772932660266.0444,-0.1229,-0.0097,-0.9743,2.721,-4.471,-1.067
1772932660266.0444,-0.1218,-0.009,-0.9736,2.389,-4.244,-1.05
1772932660266.0444,-0.1218,-0.0074,-0.9739,2.625,-4.077,-0.849
1772932660281.675,-0.1184,-0.0098,-0.9735,2.712,-4.043,-1.05
1772932660281.675,-0.1218,-0.0087,-0.9744,2.59,-3.894,-1.286
1772932660281.675,-0.1213,-0.0078,-0.9722,2.712,-3.938,-1.225
1772932660281.675,-0.1183,-0.009,-0.9705,2.817,-3.675,-1.19
1772932660297.3684,-0.1203,-0.0081,-0.9716,2.555,-3.789,-1.347
1772932660297.3684,-0.1216,-0.0098,-0.9733,2.607,-3.395,-1.286
1772932660297.3684,-0.1206,-0.0082,-0.9719,2.31,-3.325,-0.901
1772932660297.3684,-0.1228,-0.0076,-0.9682,2.441,-3.246,-1.19
1772932660312.997,-0.1191,-0.0077,-0.9703,2.599,-3.334,-1.208
1772932660312.997,-0.1196,-0.0071,-0.9707,2.607,-3.185,-1.417
1772932660312.997,-0.1187,-0.0066,-0.9729,2.538,-3.15,-1.286
1772932660312.997,-0.1186,-0.007,-0.9793,2.774,-3.194,-1.286
1772932660312.997,-0.116,-0.0039,-0.9861,2.966,-3.666,-1.339
1772932660328.6077,-0.1161,-0.0064,-0.9898,3.132,-3.658,-1.208
1772932660328.6077,-0.1174,-0.0063,-0.9962,3.518,-4.62,-1.391
1772932660344.255,-0.1178,-0.0057,-0.9987,3.868,-5.425,-1.619
1772932660344.255,-0.1167,-0.0071,-0.9972,4.48,-6.037,-1.698
1772932660344.255,-0.1167,-0.0082,-0.9931,5.049,-6.772,-1.627
1772932660344.255,-0.1212,-0.0101,-0.9833,5.241,-7.088,-1.435
1772932660344.255,-0.1164,-0.0101,-0.975,5.171,-7.044,-1.365
1772932660359.386,-0.1136,-0.0149,-0.9653,4.751,-6.825,-1.461
1772932660359.386,-0.1152,-0.0162,-0.9585,3.841,-5.862,-1.225
1772932660359.386,-0.11,-0.0163,-0.9534,2.52,-5.049,-0.954
1772932660359.386,-0.1089,-0.0148,-0.9486,1.33,-4.331,-0.91
1772932660375.2498,-0.1094,-0.0171,-0.9477,0.403,-3.334,-1.05
1772932660375.2498,-0.1087,-0.0119,-0.9507,-0.018,-2.625,-1.129
1772932660375.2498,-0.1088,-0.008,-0.9553,0.052,-2.013,-1.103
1772932660375.2498,-0.1113,-0.0036,-0.9664,0.604,-1.68,-1.242
1772932660390.5662,-0.1121,-0.0021,-0.9911,1.978,-2.249,-1.33
1772932660390.5662,-0.1105,0.0014,-0.9997,2.861,-2.984,-1.356
1772932660390.5662,-0.1149,-0.0002,-1.0026,4.077,-4.436,-1.514
1772932660390.5662,-0.1134,-0.0048,-0.9988,4.673,-5.416,-1.234
1772932660390.5662,-0.1155,-0.004,-0.9887,4.883,-6.65,-1.006
1772932660406.1533,-0.1189,-0.007,-0.9725,4.664,-7.035,-0.866
1772932660406.1533,-0.1213,-0.0106,-0.9593,3.955,-6.186,-0.866
1772932660421.697,-0.1216,-0.0101,-0.9543,3.728,-5.661,-0.919
1772932660421.697,-0.1199,-0.008,-0.9538,3.342,-4.856,-0.516
1772932660421.697,-0.1193,-0.0068,-0.9604,3.246,-3.981,-0.333
1772932660421.697,-0.1204,-0.0071,-0.9703,3.027,-3.413,-0.682
1772932660421.697,-0.1197,-0.0051,-0.9795,3.115,-3.377,-0.927
1772932660437.5894,-0.1212,-0.0059,-0.9882,2.791,-3.509,-1.103
1772932660437.5894,-0.1264,-0.0056,-0.9991,2.511,-3.465,-1.452
1772932660437.5894,-0.1279,-0.005,-1.0038,2.397,-3.605,-1.706
1772932660437.5894,-0.1311,-0.0068,-1.0021,2.1,-3.299,-1.645
1772932660452.6016,-0.1314,-0.0095,-0.9932,2.013,-2.371,-1.715
1772932660452.6016,-0.1302,-0.0069,-0.9883,1.951,-1.234,-1.724
1772932660452.6016,-0.1278,-0.009,-0.9855,1.855,-0.805,-1.855
1772932660452.6016,-0.1242,-0.0112,-0.982,1.873,-0.604,-1.864
1772932660467.8027,-0.1166,-0.0137,-0.9787,1.89,-0.858,-1.916
1772932660467.8027,-0.1146,-0.0176,-0.9707,1.4,-1.304,-1.531
1772932660467.8027,-0.1133,-0.0213,-0.9664,1.19,-1.794,-1.794
1772932660483.0554,-0.1077,-0.0232,-0.9606,0.542,-2.31,-1.855
1772932660483.0554,-0.1075,-0.0253,-0.9627,0.105,-3.281,-1.96
1772932660483.0554,-0.1082,-0.0264,-0.9653,0.21,-3.631,-1.671
1772932660483.0554,-0.1055,-0.0241,-0.9684,0.236,-4.62,-1.409
1772932660498.6248,-0.1041,-0.0243,-0.9683,0.665,-5.215,-1.461
1772932660498.6248,-0.1042,-0.0204,-0.9639,0.884,-5.749,-1.365
1772932660498.6248,-0.106,-0.0167,-0.9648,1.593,-6.326,-1.347
1772932660498.6248,-0.1089,-0.0118,-0.9622,1.907,-6.545,-1.4
1772932660498.6248,-0.1085,-0.0059,-0.9583,2.056,-6.466,-1.391
1772932660514.179,-0.1075,-0.002,-0.9599,2.161,-6.256,-1.829
1772932660514.179,-0.1054,0.003,-0.9648,2.712,-5.915,-1.715
1772932660514.179,-0.1095,0.0046,-0.9663,2.791,-5.801,-1.829
1772932660514.179,-0.1064,0.0064,-0.965,2.984,-5.014,-1.82
1772932660530.7715,-0.105,0.0051,-0.9695,3.246,-4.856,-1.811
1772932660530.7715,-0.1073,0.0077,-0.9709,3.29,-4.436,-1.601
1772932660530.7715,-0.1067,0.0041,-0.9693,3.491,-3.955,-1.899
1772932660530.7715,-0.1094,0.0011,-0.9687,3.019,-3.544,-1.619
1772932660546.8013,-0.1099,0.0004,-0.9681,3.001,-3.447,-1.698
1772932660546.8013,-0.1116,-0.0041,-0.9672,3.124,-3.167,-1.251
1772932660546.8013,-0.1147,-0.0045,-0.9686,3.019,-2.931,-1.067
1772932660546.8013,-0.1154,-0.0071,-0.9675,2.888,-2.914,-1.137
1772932660546.8013,-0.1127,-0.005,-0.969,2.896,-2.686,-1.146
1772932660562.8438,-0.1121,-0.0038,-0.9716,2.634,-2.433,-1.006
1772932660562.8438,-0.1106,-0.0082,-0.9745,2.704,-2.511,-1.006
1772932660562.8438,-0.1079,-0.0098,-0.9762,2.695,-2.424,-1.286
1772932660562.8438,-0.1099,-0.0069,-0.9786,2.651,-2.87,-1.164
1772932660577.8809,-0.1067,-0.0077,-0.9783,2.87,-3.351,-1.269
1772932660577.8809,-0.1053,-0.0102,-0.9789,2.783,-3.491,-1.208
1772932660577.8809,-0.1046,-0.0085,-0.9799,2.835,-3.815,-0.91
1772932660593.9348,-0.1047,-0.0072,-0.98,2.931,-4.043,-0.945
1772932660593.9348,-0.107,-0.0084,-0.9778,2.853,-4.401,-0.91
1772932660593.9348,-0.1083,-0.0112,-0.9779,2.791,-4.366,-0.761
1772932660593.9348,-0.1097,-0.0077,-0.98,2.984,-4.226,-0.849
1772932660609.4678,-0.1103,-0.0095,-0.9772,2.853,-4.2,-0.718
1772932660609.4678,-0.1118,-0.0092,-0.9784,2.809,-4.06,-0.647
1772932660609.4678,-0.1121,-0.0073,-0.9776,2.879,-4.06,-0.787
1772932660609.4678,-0.1146,-0.0062,-0.9725,2.835,-3.85,-1.059
1772932660625.0747,-0.1155,-0.0087,-0.9744,2.695,-3.675,-1.067
1772932660625.0747,-0.1194,-0.0079,-0.9737,2.643,-3.185,-1.129
1772932660625.0747,-0.1196,-0.0073,-0.9699,2.328,-2.73,-1.208
1772932660625.0747,-0.1186,-0.0085,-0.9723,2.319,-2.564,-1.286
1772932660640.6562,-0.119,-0.0056,-0.971,2.494,-2.406,-1.566
1772932660640.6562,-0.1168,-0.0051,-0.9745,2.669,-2.415,-1.304
1772932660640.6562,-0.1165,-0.0059,-0.9739,2.712,-2.345,-1.295
1772932660640.6562,-0.1153,-0.0064,-0.9753,2.861,-2.485,-1.558
1772932660640.6562,-0.1139,-0.005,-0.9766,2.853,-2.362,-1.715
1772932660656.266,-0.1079,-0.0043,-0.9823,3.08,-2.817,-1.636
1772932660656.266,-0.104,-0.0096,-0.9833,3.115,-3.404,-1.575
1772932660656.266,-0.1058,-0.0073,-0.9819,3.045,-3.745,-1.575
1772932660671.3198,-0.1041,-0.0091,-0.9834,3.404,-3.719,-1.549
1772932660671.3198,-0.1035,-0.0107,-0.9776,3.439,-4.077,-1.522
1772932660671.3198,-0.1052,-0.0094,-0.976,3.5,-4.428,-1.391
1772932660671.3198,-0.1049,-0.0106,-0.9761,3.377,-4.454,-1.374
1772932660687.3872,-0.1043,-0.012,-0.972,3.211,-4.489,-1.452
1772932660687.3872,-0.105,-0.0104,-0.9699,3.159,-4.349,-1.496
1772932660687.3872,-0.1061,-0.0112,-0.971,3.132,-4.393,-1.409
1772932660687.3872,-0.108,-0.01,-0.9687,2.888,-4.235,-1.4
1772932660703.455,-0.1093,-0.0089,-0.9694,2.817,-4.147,-1.391
1772932660703.455,-0.1082,-0.0099,-0.9705,2.651,-4.296,-1.111
1772932660703.455,-0.0944,-0.0082,-0.9709,2.678,-3.885,-1.208
1772932660703.455,-0.1111,-0.0063,-0.9755,2.459,-3.955,-1.391
1772932660718.9092,-0.1097,-0.0023,-0.9772,2.809,-3.929,-1.321
1772932660718.9092,-0.1117,-0.0045,-0.9776,2.896,-3.929,-1.426
1772932660718.9092,-0.1108,-0.0047,-0.9782,2.931,-3.745,-1.365
1772932660718.9092,-0.1116,-0.0021,-0.9806,3.29,-3.771,-1.286
1772932660718.9092,-0.0953,-0.0058,-0.9837,3.447,-3.728,-1.242
1772932660734.9993,-0.1086,-0.0064,-0.9856,3.553,-3.701,-1.461
1772932660734.9993,-0.1067,-0.0081,-0.9828,3.509,-3.885,-1.12
1772932660734.9993,-0.1037,-0.0085,-0.9848,3.614,-4.183,-0.989
1772932660734.9993,-0.1067,-0.0109,-0.9838,3.719,-4.428,-1.032
1772932660750.487,-0.1055,-0.0101,-0.9859,3.57,-4.865,-1.032
1772932660750.487,-0.1017,-0.0127,-0.9847,3.404,-5.058,-0.884
1772932660750.487,-0.1019,-0.0145,-0.9842,3.439,-5.128,-0.726
1772932660766.1326,-0.1036,-0.0122,-0.9833,3.526,-5.617,-0.971
1772932660766.1326,-0.0985,-0.0148,-0.9833,3.421,-5.521,-0.77
1772932660766.1326,-0.1035,-0.0131,-0.983,3.334,-5.968,-1.085
1772932660766.1326,-0.1003,-0.0092,-0.9811,3.675,-6.204,-0.892
1772932660781.7852,-0.1042,-0.0097,-0.9804,3.5,-6.423,-1.006
1772932660781.7852,-0.1006,-0.0074,-0.9809,3.623,-6.423,-1.33
1772932660781.7852,-0.1018,-0.0049,-0.9794,3.526,-6.781,-1.199
1772932660781.7852,-0.103,-0.006,-0.9773,3.535,-6.58,-1.173
1772932660797.3394,-0.1041,-0.0046,-0.9729,3.491,-6.256,-1.19
1772932660797.3394,-0.105,-0.0046,-0.9723,3.281,-6.178,-1.269
1772932660797.3394,-0.1047,-0.0028,-0.9711,3.526,-6.23,-1.181
1772932660797.3394,-0.1046,-0.0053,-0.97,3.211,-5.556,-1.304
1772932660797.3394,-0.1042,-0.0048,-0.9722,3.237,-5.32,-1.164
1772932660812.9211,-0.1024,-0.0052,-0.9686,3.141,-5.232,-1.33
1772932660812.9211,-0.107,-0.0056,-0.9677,3.115,-4.865,-1.19
1772932660812.9211,-0.1058,-0.0065,-0.9673,3.351,-4.979,-1.208
1772932660812.9211,-0.1061,-0.0042,-0.9663,3.194,-4.673,-1.4
1772932660828.646,-0.1041,-0.0068,-0.9677,3.535,-4.419,-1.391
1772932660828.646,-0.1052,-0.009,-0.9692,3.518,-4.279,-1.549
1772932660828.646,-0.1065,-0.0083,-0.9654,3.719,-4.06,-1.339
1772932660844.701,-0.1065,-0.0069,-0.9673,3.649,-3.859,-1.365
1772932660844.701,-0.1062,-0.0107,-0.9646,3.299,-3.509,-1.234
1772932660844.701,-0.1077,-0.0093,-0.9634,3.045,-3.342,-1.295
1772932660844.701,-0.1047,-0.0093,-0.9641,2.905,-3.106,-1.558
1772932660860.7527,-0.1064,-0.0064,-0.9666,2.783,-2.931,-1.339
1772932660860.7527,-0.1071,-0.0092,-0.9658,2.87,-2.634,-1.496
1772932660860.7527,-0.1052,-0.0084,-0.9697,2.546,-2.319,-1.435
1772932660860.7527,-0.1066,-0.0065,-0.972,2.87,-2.511,-1.417
1772932660876.711,-0.1053,-0.005,-0.9773,2.739,-2.809,-1.855
1772932660876.711,-0.1062,-0.0059,-0.9821,2.888,-3.054,-1.654
1772932660876.711,-0.1053,-0.0096,-0.9821,3.036,-3.054,-1.575
1772932660876.711,-0.1059,-0.0085,-0.9862,3.124,-2.905,-1.593
1772932660892.3225,-0.106,-0.0099,-0.9846,3.176,-3.203,-1.505
1772932660892.3225,-0.1042,-0.0105,-0.9845,3.299,-3.544,-1.531
1772932660892.3225,-0.1045,-0.0118,-0.9988,3.413,-4.008,-1.4
1772932660892.3225,-0.1065,-0.0121,-0.9848,3.316,-4.384,-1.444
1772932660892.3225,-0.1048,-0.0137,-0.9826,3.22,-4.305,-1.26
1772932660908.3875,-0.1038,-0.0124,-0.9816,3.255,-4.594,-1.199
1772932660908.3875,-0.1044,-0.0147,-0.9783,2.914,-4.585,-1.321
1772932660908.3875,-0.1025,-0.0132,-0.9776,2.949,-4.191,-1.321
1772932660908.3875,-0.1047,-0.0126,-0.9751,2.905,-4.34,-1.208
1772932660924.0435,-0.1039,-0.0127,-0.9755,2.678,-4.104,-1.199
1772932660924.0435,-0.1057,-0.0121,-0.9772,2.625,-4.191,-1.111
1772932660924.0435,-0.1038,-0.0115,-0.9745,2.643,-4.025,-1.024
1772932660924.0435,-0.1054,-0.0104,-0.9739,2.765,-4.112,-1.094
1772932660938.7969,-0.1066,-0.01,-0.9724,2.817,-3.964,-1.514
1772932660938.7969,-0.1047,-0.0088,-0.9695,2.643,-3.763,-1.365
1772932660938.7969,-0.1065,-0.0082,-0.9692,2.476,-3.308,-1.33
1772932660954.4082,-0.105,-0.0066,-0.967,2.73,-3.272,-1.234
1772932660954.4082,-0.1067,-0.0094,-0.9673,2.783,-3.185,-1.4
1772932660954.4082,-0.1051,-0.0075,-0.9678,2.721,-3.264,-1.173
1772932660954.4082,-0.1064,-0.0076,-0.9665,2.765,-2.984,-1.137
1772932660969.5813,-0.1044,-0.009,-0.9532,2.826,-2.695,-1.26
1772932660969.5813,-0.1024,-0.0079,-0.9686,2.809,-3.098,-1.225
1772932660969.5813,-0.1023,-0.0092,-0.9694,3.098,-2.931,-1.146
1772932660969.5813,-0.1025,-0.0092,-0.9695,2.949,-2.861,-1.251
1772932660969.5813,-0.1017,-0.0094,-0.9709,3.185,-2.984,-1.242
1772932660984.751,-0.1008,-0.0088,-0.9695,2.888,-3.211,-1.321
1772932660984.751,-0.0998,-0.01,-0.9732,3.176,-3.001,-1.216
1772932660984.751,-0.1008,-0.0087,-0.9723,3.106,-3.185,-1.374
1772932660984.751,-0.0988,-0.0095,-0.9722,3.089,-3.386,-1.225
1772932661000.4543,-0.0981,-0.0085,-0.9734,3.255,-3.631,-1.173
1772932661000.4543,-0.0968,-0.0083,-0.9722,3.334,-3.544,-1.19
1772932661000.4543,-0.0981,-0.0055,-0.9752,3.098,-3.736,-1.225
1772932661016.086,-0.0996,-0.006,-0.975,3.439,-3.509,-1.374
1772932661016.086,-0.0972,-0.0082,-0.9756,3.351,-3.535,-1.356
1772932661016.086,-0.0971,-0.0055,-0.9751,3.325,-3.386,-1.295
1772932661016.086,-0.0985,-0.0071,-0.9737,3.404,-3.561,-1.304
1772932661031.757,-0.0983,-0.0088,-0.9756,3.264,-3.666,-1.356
1772932661031.757,-0.095,-0.0087,-0.9777,3.325,-3.386,-1.321
1772932661031.757,-0.0969,-0.01,-0.977,3.456,-3.404,-1.391
1772932661031.757,-0.0959,-0.0121,-0.9761,3.264,-3.526,-1.269
1772932661047.5603,-0.0977,-0.0106,-0.9771,3.098,-3.325,-1.33
1772932661047.5603,-0.0983,-0.0108,-0.9768,3.264,-3.526,-1.558
1772932661047.5603,-0.0956,-0.0102,-0.977,3.194,-3.491,-1.383
1772932661047.5603,-0.0954,-0.0115,-0.9739,2.958,-3.797,-1.312
1772932661047.5603,-0.098,-0.0104,-0.9726,3.167,-3.386,-1.304
1772932661063.0566,-0.097,-0.0115,-0.9706,2.975,-3.124,-1.181
1772932661063.0566,-0.0964,-0.011,-0.9703,2.721,-2.984,-1.076
1772932661063.0566,-0.0991,-0.0087,-0.9714,2.686,-2.66,-0.945
1772932661063.0566,-0.0973,-0.0094,-0.9699,2.765,-2.59,-0.91
1772932661078.3582,-0.0973,-0.0076,-0.9719,2.459,-2.266,-0.98
1772932661078.3582,-0.0996,-0.0046,-0.9723,2.485,-2.485,-0.945
1772932661078.3582,-0.0989,-0.0073,-0.97,2.669,-2.433,-0.858
1772932661093.1448,-0.0994,-0.0031,-0.9728,2.546,-2.397,-0.971
1772932661093.1448,-0.0963,-0.0033,-0.9761,2.572,-2.284,-0.945
1772932661093.1448,-0.0984,-0.0049,-0.9778,2.511,-2.441,-1.155
1772932661093.1448,-0.0961,-0.005,-0.9789,2.826,-2.485,-1.304
1772932661108.6565,-0.0959,-0.0054,-0.9806,2.774,-2.791,-1.4
1772932661108.6565,-0.0953,-0.0073,-0.9813,2.975,-2.94,-1.155
1772932661108.6565,-0.0964,-0.009,-0.9823,3.045,-2.993,-1.365
1772932661108.6565,-0.0964,-0.0096,-0.9807,2.914,-2.931,-1.706
1772932661123.9146,-0.0933,-0.0082,-0.9811,3.404,-3.342,-1.768
1772932661123.9146,-0.0939,-0.0095,-0.9821,3.106,-3.876,-1.873
1772932661123.9146,-0.0941,-0.0095,-0.9822,3.404,-4.016,-1.663
1772932661123.9146,-0.0922,-0.0113,-0.9811,3.377,-4.279,-1.391
1772932661139.3867,-0.0939,-0.0138,-0.981,3.316,-4.191,-1.776
1772932661139.3867,-0.0957,-0.012,-0.9797,3.159,-4.226,-1.593
1772932661139.3867,-0.0936,-0.0118,-0.9824,3.15,-4.322,-1.846
1772932661154.9001,-0.0924,-0.0146,-0.9799,3.229,-4.331,-1.391
1772932661154.9001,-0.092,-0.0119,-0.9801,2.896,-4.419,-1.278
1772932661154.9001,-0.0925,-0.0134,-0.9765,3.071,-4.357,-1.374
1772932661154.9001,-0.0939,-0.0137,-0.9768,2.888,-4.594,-1.26
1772932661154.9001,-0.0929,-0.014,-0.9798,3.001,-4.532,-1.33
1772932661170.102,-0.0936,-0.0143,-0.977,2.975,-4.445,-1.312
