Time_ms,ax,ay,az,gx,gy,gz
1772934019910.973,0.0089,-0.0561,-0.9819,3.36,-5.915,-1.951
1772934019910.973,0.0101,-0.0554,-0.9813,3.482,-5.766,-1.978
1772934019926.1982,0.0087,-0.0554,-0.9842,3.369,-5.591,-1.89
1772934019926.1982,0.0075,-0.0554,-0.9831,3.342,-5.775,-1.855
1772934019926.1982,0.0073,-0.0562,-0.9781,3.211,-5.53,-2.161
1772934019926.1982,0.0093,-0.0567,-0.9775,3.413,-5.801,-1.907
1772934019926.1982,0.0042,-0.0569,-0.9804,3.5,-6.099,-1.96
1772934019926.1982,0.0073,-0.0566,-0.9799,3.658,-6.151,-1.934
1772934019926.1982,0.0077,-0.0586,-0.9796,3.395,-6.003,-1.881
1772934019926.1982,0.007,-0.057,-0.979,3.167,-5.959,-2.118
1772934019926.1982,0.0099,-0.0559,-0.9769,3.237,-5.758,-1.802
1772934019926.1982,0.0089,-0.0591,-0.9767,3.404,-6.046,-1.776
1772934019926.1982,0.0098,-0.0575,-0.9756,3.404,-5.985,-1.89
1772934019926.1982,0.0097,-0.0583,-0.978,3.509,-5.915,-1.802
1772934019941.3542,0.0084,-0.0563,-0.9736,3.237,-5.871,-1.846
1772934019941.3542,0.0063,-0.0605,-0.9734,3.535,-5.565,-1.741
1772934019941.3542,0.0064,-0.0587,-0.9748,3.474,-5.749,-1.724
1772934019941.3542,0.0062,-0.0588,-0.9771,3.553,-5.801,-1.715
1772934019941.3542,0.0067,-0.0602,-0.9725,3.544,-5.749,-1.768
1772934019941.3542,0.0065,-0.0565,-0.9722,3.544,-5.81,-1.785
1772934019941.3542,0.0071,-0.0592,-0.9734,3.71,-5.626,-1.732
1772934019941.3542,0.004,-0.0587,-0.9715,3.684,-5.407,-1.575
1772934019941.3542,0.0051,-0.0581,-0.9726,3.71,-5.478,-1.802
1772934019941.3542,0.0047,-0.0581,-0.9719,3.964,-5.617,-1.768
1772934019941.3542,0.0045,-0.0561,-0.9732,3.666,-5.617,-1.829
1772934019941.3542,0.0052,-0.0579,-0.9719,3.666,-5.617,-1.785
1772934019941.3542,0.0024,-0.0579,-0.9735,3.692,-5.495,-1.654
1772934019957.0493,0.0029,-0.0557,-0.9749,3.771,-5.478,-1.785
1772934019957.0493,0.0032,-0.0555,-0.9712,3.745,-5.478,-1.575
1772934019957.0493,0.0023,-0.0572,-0.9728,3.789,-5.372,-1.802
1772934019957.0493,0.0042,-0.0567,-0.974,3.553,-5.346,-1.916
1772934019957.0493,0.0053,-0.0576,-0.9743,3.509,-5.241,-1.68
1772934019957.0493,0.003,-0.0562,-0.9723,3.281,-4.97,-1.593
1772934019957.0493,0.0032,-0.057,-0.9729,3.124,-5.215,-1.601
1772934019957.0493,0.0023,-0.057,-0.9742,3.159,-5.18,-1.654
1772934019957.0493,0.0041,-0.0548,-0.9718,3.036,-5.101,-1.627
1772934019957.0493,0.0026,-0.053,-0.972,2.87,-5.058,-1.522
1772934019957.0493,0.0054,-0.0537,-0.9729,2.94,-5.154,-1.566
1772934019957.0493,0.003,-0.0535,-0.97,2.625,-5.119,-1.208
1772934019973.3076,0.004,-0.0558,-0.9701,2.625,-5.093,-1.216
1772934019973.3076,0.0021,-0.0544,-0.9705,2.433,-5.18,-1.19
1772934019973.3076,0.0013,-0.0558,-0.9717,2.345,-5.005,-1.146
1772934019973.3076,-0.0008,-0.0541,-0.9699,2.467,-5.162,-1.304
1772934019973.3076,-0.0007,-0.0525,-0.9684,2.45,-5.136,-1.558
1772934019973.3076,-0.003,-0.0564,-0.9701,2.257,-4.9,-1.452
1772934019973.3076,-0.002,-0.0522,-0.9709,2.476,-4.891,-1.531
1772934019973.3076,0.0015,-0.0529,-0.9704,2.231,-4.62,-1.61
1772934019973.3076,-0.0019,-0.0545,-0.9719,2.336,-4.856,-1.619
1772934019973.3076,-0.0003,-0.0559,-0.9727,2.502,-4.707,-1.575
1772934019973.3076,-0.0021,-0.0537,-0.9729,2.17,-4.646,-1.47
1772934019973.3076,-0.0031,-0.0563,-0.9745,2.135,-4.585,-1.566
1772934019973.3076,-0.0029,-0.056,-0.9757,2.345,-4.742,-1.627
1772934019973.3076,-0.0027,-0.0553,-0.9733,2.17,-4.795,-1.75
1772934019988.659,-0.0015,-0.0561,-0.9749,2.214,-4.734,-1.645
1772934019988.659,-0.0019,-0.0549,-0.9768,2.091,-4.541,-1.479
1772934019988.659,-0.0011,-0.0562,-0.975,2.441,-4.48,-1.689
1772934019988.659,-0.0015,-0.0547,-0.9769,2.275,-4.445,-1.645
1772934019988.659,-0.0014,-0.0568,-0.9749,2.336,-4.375,-1.636
1772934019988.659,-0.0021,-0.0567,-0.9762,2.424,-4.401,-1.566
1772934019988.659,-0.0015,-0.0565,-0.9771,2.511,-4.62,-1.82
1772934019988.659,-0.0016,-0.0565,-0.9765,2.555,-4.41,-1.68
1772934019988.659,0.0014,-0.0606,-0.9788,2.397,-4.357,-1.663
1772934019988.659,-0.001,-0.0605,-0.9796,2.45,-4.41,-1.505
1772934019988.659,0.002,-0.0597,-0.9778,2.546,-4.436,-1.636
1772934019988.659,0.0009,-0.0594,-0.9806,2.406,-4.393,-1.627
1772934020003.9868,0.002,-0.0608,-0.9799,2.52,-4.419,-1.444
1772934020003.9868,0.0007,-0.0604,-0.9792,2.301,-4.48,-1.724
1772934020003.9868,-0.0007,-0.0615,-0.9811,2.415,-4.69,-1.575
1772934020003.9868,-0.001,-0.0624,-0.9841,2.572,-4.463,-1.47
1772934020003.9868,0.0013,-0.0636,-0.9818,2.607,-4.235,-1.461
1772934020003.9868,-0.0013,-0.0613,-0.9802,2.765,-4.62,-1.435
1772934020003.9868,-0.0007,-0.0613,-0.9829,2.888,-4.804,-1.321
1772934020003.9868,0.0023,-0.062,-0.9815,2.835,-4.769,-1.356
1772934020003.9868,0.0034,-0.0606,-0.9797,2.966,-4.699,-1.488
1772934020003.9868,0.0045,-0.0626,-0.9811,2.94,-4.664,-1.251
1772934020003.9868,0.0026,-0.0631,-0.9837,3.229,-4.524,-1.698
1772934020003.9868,0.0026,-0.0649,-0.9823,3.281,-4.594,-1.461
1772934020019.2998,0.0023,-0.0623,-0.9832,3.386,-4.603,-1.593
1772934020019.2998,0.0046,-0.0591,-0.9807,3.596,-4.742,-1.785
1772934020019.2998,0.0055,-0.0614,-0.9801,3.404,-4.541,-1.575
1772934020019.2998,0.0074,-0.0609,-0.981,3.544,-4.454,-1.558
1772934020019.2998,0.0068,-0.0608,-0.9837,3.395,-4.594,-1.627
1772934020019.2998,0.0071,-0.0603,-0.9839,3.439,-4.594,-1.768
1772934020019.2998,0.0073,-0.0585,-0.9844,3.465,-4.856,-1.811
1772934020019.2998,0.0068,-0.0611,-0.9838,3.526,-4.742,-1.934
1772934020019.2998,0.0083,-0.0605,-0.9832,3.482,-4.707,-1.759
1772934020019.2998,0.0076,-0.0604,-0.9866,3.544,-4.935,-1.619
1772934020019.2998,0.0089,-0.0611,-0.9842,3.561,-4.979,-1.636
1772934020019.2998,0.0104,-0.0592,-0.9836,3.404,-5.128,-1.452
1772934020019.2998,0.0076,-0.0587,-0.9823,3.447,-5.154,-1.671
1772934020034.5627,0.01,-0.0609,-0.9839,3.474,-5.093,-1.566
1772934020034.5627,0.011,-0.062,-0.9844,3.36,-5.206,-1.636
1772934020034.5627,0.0108,-0.0636,-0.9828,3.334,-5.232,-1.479
1772934020034.5627,0.0117,-0.0613,-0.9858,3.29,-5.197,-1.619
1772934020034.5627,0.009,-0.064,-0.9831,3.132,-5.434,-1.505
1772934020034.5627,0.0102,-0.063,-0.9844,3.334,-5.416,-1.619
1772934020034.5627,0.0103,-0.0636,-0.9823,2.966,-5.268,-1.505
1772934020034.5627,0.0126,-0.0639,-0.9825,2.861,-5.206,-1.409
1772934020034.5627,0.0111,-0.0637,-0.9841,2.993,-5.232,-1.435
1772934020034.5627,0.0119,-0.0631,-0.9847,3.098,-5.39,-1.619
1772934020034.5627,0.0112,-0.0621,-0.9826,2.888,-5.338,-1.566
1772934020034.5627,0.0119,-0.0619,-0.983,2.975,-5.338,-1.479
1772934020051.4275,0.0099,-0.0627,-0.982,2.748,-5.539,-1.383
1772934020051.4275,0.0115,-0.0633,-0.9828,2.748,-5.442,-1.558
1772934020051.4275,0.011,-0.0625,-0.9833,2.721,-5.39,-1.575
1772934020051.4275,0.0107,-0.0638,-0.983,2.704,-5.407,-1.627
1772934020051.4275,0.0083,-0.0617,-0.9848,2.581,-5.372,-1.216
1772934020051.4275,0.0127,-0.0626,-0.9835,2.678,-5.679,-1.522
1772934020051.4275,0.0093,-0.0634,-0.982,2.502,-5.539,-1.689
1772934020051.4275,0.0116,-0.0634,-0.9836,2.774,-5.495,-1.627
1772934020051.4275,0.0111,-0.0643,-0.9826,2.896,-5.416,-1.601
1772934020051.4275,0.009,-0.0648,-0.9798,2.748,-5.232,-1.645
1772934020051.4275,0.0126,-0.0662,-0.9814,2.669,-5.39,-1.698
1772934020051.4275,0.0113,-0.0628,-0.9815,2.783,-5.311,-1.689
1772934020051.4275,0.011,-0.0652,-0.9819,2.844,-5.399,-1.75
1772934020051.4275,0.0115,-0.0644,-0.9809,2.748,-5.434,-1.61
1772934020065.6516,0.009,-0.0649,-0.9834,2.905,-5.32,-1.864
1772934020065.6516,0.0104,-0.0626,-0.9813,2.949,-5.504,-1.855
1772934020065.6516,0.0116,-0.062,-0.9803,3.089,-5.224,-1.837
1772934020065.6516,0.0112,-0.065,-0.9814,3.01,-5.241,-1.794
1772934020065.6516,0.0113,-0.0661,-0.9789,3.036,-5.005,-1.907
1772934020065.6516,0.0111,-0.065,-0.9786,3.124,-5.215,-1.934
1772934020065.6516,0.0096,-0.0662,-0.9829,3.115,-5.232,-2.161
1772934020065.6516,0.0091,-0.0654,-0.9806,3.027,-5.469,-1.732
1772934020065.6516,0.009,-0.0672,-0.9787,3.124,-5.32,-1.75
1772934020065.6516,0.0107,-0.0676,-0.9812,2.879,-5.005,-1.89
1772934020065.6516,0.0096,-0.0672,-0.9808,3.141,-4.909,-1.802
1772934020081.2275,0.0096,-0.0661,-0.9811,2.949,-4.874,-1.82
1772934020081.2275,0.0079,-0.0675,-0.9806,2.896,-5.058,-1.724
1772934020081.2275,0.0065,-0.0662,-0.9806,2.817,-5.241,-1.82
1772934020081.2275,0.0075,-0.066,-0.9793,2.879,-5.268,-1.654
1772934020081.2275,0.0086,-0.063,-0.98,2.783,-5.145,-1.741
1772934020081.2275,0.0071,-0.061,-0.9798,2.564,-5.136,-1.505
1772934020081.2275,0.0058,-0.0642,-0.9821,2.704,-5.031,-1.601
1772934020081.2275,0.0087,-0.0645,-0.9797,2.572,-5.005,-1.61
1772934020081.2275,0.0059,-0.0612,-0.9788,2.546,-5.093,-1.645
1772934020081.2275,0.0046,-0.0621,-0.9783,2.572,-5.162,-1.435
1772934020081.2275,0.0062,-0.0634,-0.9795,2.599,-5.031,-1.356
1772934020081.2275,0.0085,-0.0619,-0.9767,2.817,-4.891,-1.479
1772934020081.2275,0.0077,-0.0608,-0.9773,2.529,-4.777,-1.496
1772934020096.468,0.006,-0.0608,-0.9754,2.555,-4.996,-1.234
1772934020096.468,0.007,-0.0617,-0.9772,2.643,-5.154,-1.383
1772934020096.468,0.0071,-0.0595,-0.9769,2.52,-4.952,-1.435
1772934020096.468,0.0074,-0.0625,-0.9777,2.433,-4.944,-1.461
1772934020096.468,0.0063,-0.0602,-0.9748,2.406,-4.891,-1.505
1772934020096.468,0.0073,-0.0614,-0.9752,2.24,-4.839,-1.234
1772934020096.468,0.0066,-0.0592,-0.9758,2.406,-4.638,-1.137
1772934020096.468,0.0049,-0.0592,-0.9762,2.485,-4.489,-1.514
1772934020096.468,0.0046,-0.0601,-0.9758,2.362,-4.699,-1.479
1772934020096.468,0.0057,-0.0576,-0.9764,2.257,-4.76,-1.391
1772934020096.468,0.0029,-0.058,-0.9776,2.257,-4.751,-1.4
1772934020096.468,0.0045,-0.0591,-0.9779,2.179,-4.62,-1.365
1772934020112.8281,0.0071,-0.0575,-0.9742,2.205,-4.839,-1.383
1772934020112.8281,0.0052,-0.0556,-0.9765,2.275,-4.786,-1.715
1772934020112.8281,0.0041,-0.057,-0.978,2.45,-4.918,-1.724
1772934020112.8281,0.0045,-0.0558,-0.9778,2.389,-4.795,-1.645
1772934020112.8281,0.0041,-0.0544,-0.9767,2.214,-4.603,-1.426
1772934020112.8281,0.0036,-0.0571,-0.9789,2.249,-4.821,-1.304
1772934020112.8281,0.0047,-0.0578,-0.9789,2.564,-4.83,-1.286
1772934020112.8281,0.0015,-0.0572,-0.9759,2.643,-4.883,-1.593
1772934020112.8281,0.0017,-0.0551,-0.978,2.625,-4.9,-1.496
1772934020112.8281,0.0036,-0.0571,-0.9763,2.555,-4.725,-1.514
1772934020112.8281,0.0053,-0.0567,-0.9756,2.406,-5.014,-1.522
1772934020112.8281,0.0059,-0.0554,-0.9756,2.17,-4.874,-1.435
1772934020112.8281,0.0048,-0.0588,-0.9769,2.371,-4.891,-1.54
1772934020112.8281,0.0056,-0.0555,-0.9758,2.397,-4.909,-1.654
1772934020128.2632,0.0038,-0.0539,-0.9788,2.529,-5.075,-1.627
1772934020128.2632,0.003,-0.0565,-0.9778,2.336,-4.979,-1.295
1772934020128.2632,0.0029,-0.0554,-0.9787,2.406,-5.075,-1.374
1772934020128.2632,0.005,-0.0594,-0.9798,2.861,-4.874,-1.4
1772934020128.2632,0.0038,-0.0566,-0.9794,2.467,-4.952,-1.417
1772934020128.2632,0.0049,-0.0568,-0.9759,2.52,-5.145,-1.347
1772934020128.2632,0.0024,-0.057,-0.9781,2.572,-5.224,-1.304
1772934020128.2632,0.0073,-0.058,-0.9792,2.45,-5.084,-1.426
1772934020128.2632,0.0048,-0.0577,-0.9755,2.362,-5.171,-1.391
1772934020128.2632,0.0024,-0.0577,-0.9752,2.24,-5.119,-1.278
1772934020128.2632,0.0054,-0.0586,-0.9778,2.467,-5.311,-1.286
1772934020128.2632,0.0026,-0.0603,-0.978,2.433,-5.346,-1.339
1772934020144.364,0.0059,-0.0606,-0.9772,2.485,-5.46,-1.558
1772934020144.364,0.0055,-0.0568,-0.9756,2.38,-5.303,-1.374
1772934020144.364,0.007,-0.0567,-0.9756,2.345,-5.372,-1.094
1772934020144.364,0.0067,-0.0545,-0.9797,2.572,-5.434,-1.409
1772934020144.364,0.0088,-0.0562,-0.978,2.59,-5.276,-1.383
1772934020144.364,0.003,-0.0564,-0.9758,2.59,-5.224,-1.295
1772934020144.364,0.0047,-0.0558,-0.9758,2.52,-5.346,-1.435
1772934020144.364,0.0042,-0.0562,-0.9777,2.599,-5.46,-1.531
1772934020144.364,0.0093,-0.0563,-0.978,2.572,-5.241,-1.505
1772934020144.364,0.0067,-0.057,-0.9775,2.538,-5.381,-1.374
1772934020144.364,0.0084,-0.0565,-0.9751,2.581,-5.451,-1.461
1772934020144.364,0.007,-0.0576,-0.9783,2.94,-5.224,-1.365
1772934020144.364,0.0085,-0.0572,-0.9782,3.045,-5.259,-1.732
1772934020160.1477,0.0104,-0.0591,-0.978,3.36,-5.346,-1.741
1772934020160.1477,0.0103,-0.0581,-0.9762,3.115,-5.513,-1.54
1772934020160.1477,0.0097,-0.0613,-0.9767,3.08,-5.399,-1.68
1772934020160.1477,0.0106,-0.0602,-0.9783,3.027,-5.416,-1.444
1772934020160.1477,0.0103,-0.0619,-0.9789,3.167,-5.232,-1.347
1772934020160.1477,0.0098,-0.0587,-0.982,2.888,-5.04,-1.251
1772934020160.1477,0.0102,-0.0605,-0.9789,3.01,-5.101,-1.286
1772934020160.1477,0.0113,-0.0565,-0.9805,3.229,-5.25,-1.234
1772934020160.1477,0.0084,-0.0575,-0.9803,3.071,-5.268,-1.216
1772934020160.1477,0.0087,-0.0567,-0.9821,3.369,-5.18,-1.251
1772934020160.1477,0.0086,-0.0557,-0.9812,3.553,-5.39,-1.409
1772934020160.1477,0.0105,-0.0547,-0.9793,3.342,-5.303,-1.417
1772934020160.1477,0.0124,-0.0556,-0.9826,3.29,-5.25,-1.391
1772934020175.088,0.0093,-0.0565,-0.9811,3.342,-5.145,-1.295
1772934020175.088,0.009,-0.0565,-0.9837,3.518,-5.285,-1.33
1772934020175.088,0.0103,-0.0567,-0.9859,3.605,-5.451,-1.479
1772934020175.088,0.0101,-0.0554,-0.9837,4.077,-5.626,-1.593
1772934020175.088,0.0104,-0.0536,-0.9845,4.322,-5.451,-1.61
1772934020175.088,0.0106,-0.0524,-0.9851,4.218,-5.434,-1.75
1772934020175.088,0.0096,-0.0542,-0.9859,4.34,-5.539,-1.846
1772934020175.088,0.0101,-0.0558,-0.9866,4.699,-5.425,-1.636
1772934020175.088,0.01,-0.0538,-0.9843,4.804,-5.381,-1.75
1772934020175.088,0.0113,-0.0547,-0.9859,4.996,-5.644,-1.951
1772934020175.088,0.012,-0.0566,-0.9839,5.162,-5.574,-2.065
1772934020175.088,0.011,-0.0555,-0.9837,5.197,-5.696,-2.205
1772934020190.3535,0.0142,-0.0575,-0.9837,4.996,-5.513,-2.292
1772934020190.3535,0.0146,-0.0579,-0.9828,5.162,-5.749,-2.083
1772934020190.3535,0.0148,-0.0586,-0.9835,5.04,-5.985,-2.152
1772934020190.3535,0.0146,-0.0588,-0.9833,5.005,-5.95,-1.934
1772934020190.3535,0.0171,-0.0582,-0.9836,4.961,-5.81,-1.986
1772934020190.3535,0.0152,-0.0595,-0.9843,5.215,-5.801,-1.96
1772934020190.3535,0.017,-0.0595,-0.9823,4.786,-5.941,-1.986
1772934020190.3535,0.0169,-0.057,-0.9829,4.506,-5.889,-1.907
1772934020190.3535,0.0158,-0.0579,-0.9833,4.253,-5.968,-2.126
1772934020190.3535,0.0167,-0.0565,-0.9837,4.253,-6.282,-1.942
1772934020190.3535,0.0174,-0.0562,-0.9815,4.095,-6.02,-1.907
1772934020190.3535,0.0146,-0.0569,-0.9824,3.973,-6.134,-1.768
1772934020205.9956,0.0136,-0.0581,-0.9803,3.92,-6.405,-1.627
1772934020205.9956,0.0159,-0.0573,-0.9794,3.964,-6.335,-1.75
1772934020205.9956,0.0151,-0.0567,-0.9789,3.92,-6.064,-1.584
1772934020205.9956,0.0148,-0.0573,-0.98,3.719,-6.107,-1.654
1772934020205.9956,0.0128,-0.0572,-0.9777,3.841,-6.02,-1.741
1772934020205.9956,0.014,-0.0585,-0.9819,3.763,-6.335,-1.802
1772934020205.9956,0.0142,-0.0592,-0.9804,3.771,-6.449,-1.873
1772934020205.9956,0.0134,-0.0607,-0.9793,3.666,-6.143,-1.759
1772934020205.9956,0.0138,-0.0603,-0.9792,3.587,-6.379,-1.881
1772934020205.9956,0.0121,-0.0578,-0.9795,3.587,-6.414,-1.671
1772934020205.9956,0.0123,-0.0587,-0.9805,3.5,-6.213,-1.925
1772934020205.9956,0.014,-0.059,-0.9814,3.325,-6.116,-1.916
1772934020205.9956,0.0144,-0.0594,-0.9823,3.211,-6.064,-1.715
1772934020221.5425,0.013,-0.0566,-0.9801,3.57,-6.099,-1.636
1772934020221.5425,0.0119,-0.0569,-0.9821,3.316,-5.906,-1.864
1772934020221.5425,0.0136,-0.0575,-0.9809,3.272,-6.003,-1.925
1772934020221.5425,0.0116,-0.0577,-0.9794,3.01,-5.749,-1.89
1772934020221.5425,0.0122,-0.0586,-0.9809,3.054,-5.836,-1.881
1772934020221.5425,0.01,-0.0596,-0.9786,3.29,-6.037,-2.047
1772934020221.5425,0.0071,-0.0561,-0.981,3.237,-5.827,-2.188
1772934020221.5425,0.0109,-0.0556,-0.9794,3.167,-5.941,-2.188
1772934020221.5425,0.0077,-0.0568,-0.9778,3.211,-5.845,-2.118
1772934020221.5425,0.0084,-0.057,-0.9819,3.413,-5.793,-2.1
1772934020221.5425,0.0083,-0.0596,-0.9809,3.211,-6.029,-2.284
1772934020221.5425,0.0093,-0.059,-0.9804,3.115,-5.819,-2.45
1772934020221.5425,0.0093,-0.0596,-0.9787,3.36,-5.731,-2.345
1772934020236.8638,0.0115,-0.0594,-0.98,3.229,-5.486,-2.205
1772934020236.8638,0.0065,-0.061,-0.9798,3.229,-5.486,-2.231
1772934020236.8638,0.0096,-0.0618,-0.9784,3.334,-5.609,-2.319
1772934020236.8638,0.0062,-0.0619,-0.9771,3.272,-5.696,-2.257
1772934020236.8638,0.0085,-0.0631,-0.9758,3.255,-5.469,-2.1
1772934020236.8638,0.0056,-0.0622,-0.979,3.159,-5.591,-2.17
1772934020236.8638,0.007,-0.0637,-0.9781,3.071,-5.521,-2.249
1772934020236.8638,0.0061,-0.0637,-0.9797,3.167,-5.486,-2.1
1772934020236.8638,0.0038,-0.0651,-0.9772,2.817,-5.346,-2.118
1772934020236.8638,0.0069,-0.0653,-0.9772,3.106,-5.434,-2.109
1772934020236.8638,0.0044,-0.0658,-0.975,3.001,-5.591,-2.047
1772934020236.8638,0.006,-0.0656,-0.9773,3.159,-5.364,-2.1
1772934020252.1765,0.0034,-0.0645,-0.977,3.159,-5.451,-1.978
1772934020252.1765,0.0029,-0.0651,-0.9774,3.325,-5.285,-1.978
1772934020252.1765,0.0034,-0.066,-0.9769,3.299,-5.372,-1.995
1772934020252.1765,0.0051,-0.0671,-0.9777,2.975,-5.189,-1.925
1772934020252.1765,0.0032,-0.0659,-0.9769,3.036,-5.241,-1.645
1772934020252.1765,0.0056,-0.0653,-0.9771,2.984,-5.276,-1.855
1772934020252.1765,0.0028,-0.0673,-0.9795,3.045,-5.136,-1.881
1772934020252.1765,0.0041,-0.0641,-0.9745,3.211,-4.856,-1.715
1772934020252.1765,0.0041,-0.0667,-0.9773,3.001,-4.865,-1.916
1772934020252.1765,0.0041,-0.0642,-0.9769,2.8,-4.952,-1.864
1772934020252.1765,0.0043,-0.0647,-0.9781,2.87,-4.83,-1.759
1772934020252.1765,0.0033,-0.0636,-0.977,2.844,-4.9,-1.724
1772934020252.1765,0.0037,-0.0651,-0.9763,2.73,-4.952,-1.636
1772934020267.9824,0.0013,-0.0611,-0.9756,2.599,-4.874,-1.479
1772934020267.9824,0.0045,-0.0644,-0.9775,2.607,-4.979,-1.452
1772934020267.9824,0.0048,-0.0621,-0.9746,2.546,-4.874,-1.619
1772934020267.9824,0.0047,-0.0626,-0.9781,2.564,-4.673,-1.575
1772934020267.9824,0.0018,-0.0644,-0.9759,2.45,-4.725,-1.488
1772934020267.9824,0.0052,-0.0637,-0.9749,2.45,-4.777,-1.426
1772934020267.9824,0.0055,-0.0645,-0.9765,2.275,-4.445,-1.479
1772934020267.9824,0.0036,-0.0647,-0.9771,2.214,-4.62,-1.33
1772934020267.9824,0.0057,-0.0623,-0.9758,2.389,-4.646,-1.295
1772934020267.9824,0.006,-0.0622,-0.9766,2.266,-4.821,-1.269
1772934020267.9824,0.0051,-0.0617,-0.9775,2.31,-4.664,-1.251
1772934020267.9824,0.0041,-0.0604,-0.9784,2.354,-4.76,-1.391
1772934020267.9824,0.0035,-0.0581,-0.9778,1.986,-4.839,-1.269
1772934020283.522,0.0051,-0.0587,-0.9778,1.829,-4.489,-1.05
1772934020283.522,0.0055,-0.0581,-0.978,2.021,-4.603,-1.015
1772934020283.522,0.0057,-0.0603,-0.9759,2.292,-4.497,-1.05
1772934020283.522,0.0048,-0.059,-0.9742,2.196,-4.69,-1.137
1772934020283.522,0.0052,-0.0586,-0.9759,2.161,-4.62,-1.164
1772934020283.522,0.0035,-0.0591,-0.9755,2.292,-4.725,-1.181
1772934020283.522,0.0041,-0.0631,-0.9775,2.328,-4.883,-1.216
1772934020283.522,0.0047,-0.0611,-0.975,2.161,-4.804,-1.12
1772934020283.522,0.0029,-0.0609,-0.9766,2.205,-4.707,-1.216
1772934020283.522,0.0057,-0.0587,-0.9777,2.275,-4.935,-1.295
1772934020283.522,0.004,-0.0605,-0.9772,2.214,-4.987,-1.111
1772934020283.522,0.0039,-0.0589,-0.9759,2.17,-4.9,-1.181
1772934020298.866,0.0045,-0.06,-0.9783,2.257,-4.883,-1.146
1772934020298.866,0.0039,-0.0589,-0.9771,2.354,-4.629,-1.137
1772934020298.866,0.0036,-0.0608,-0.9772,2.441,-4.821,-1.26
1772934020298.866,0.0042,-0.0573,-0.9789,2.301,-4.865,-1.111
1772934020298.866,0.0047,-0.0595,-0.9819,2.328,-4.812,-1.155
1772934020298.866,0.0057,-0.0582,-0.979,2.257,-4.594,-1.365
1772934020298.866,0.0047,-0.0595,-0.9783,2.485,-4.804,-1.19
1772934020298.866,0.0073,-0.0602,-0.9765,2.52,-4.795,-1.041
1772934020298.866,0.0049,-0.0585,-0.98,2.581,-4.725,-1.391
1772934020298.866,0.0065,-0.0598,-0.98,2.625,-5.058,-1.312
1772934020298.866,0.0058,-0.0604,-0.9794,2.502,-4.673,-1.146
1772934020298.866,0.0045,-0.0595,-0.9801,2.643,-4.742,-1.452
1772934020298.866,0.0047,-0.0597,-0.9787,2.625,-4.646,-1.339
1772934020314.0044,0.0054,-0.0593,-0.9775,2.634,-4.646,-1.347
1772934020314.0044,0.0041,-0.0584,-0.9824,2.756,-4.585,-1.269
1772934020314.0044,0.006,-0.0564,-0.9794,2.914,-5.058,-1.549
1772934020314.0044,0.0073,-0.0555,-0.9803,2.914,-5.005,-1.304
1772934020314.0044,0.0059,-0.0577,-0.9828,2.835,-4.742,-1.26
1772934020314.0044,0.0081,-0.0564,-0.9825,2.774,-4.725,-1.312
1772934020314.0044,0.0055,-0.0573,-0.9812,2.748,-4.734,-1.4
1772934020314.0044,0.0064,-0.0584,-0.9812,2.809,-4.891,-1.312
1772934020314.0044,0.0065,-0.0572,-0.9806,2.861,-4.769,-1.417
1772934020314.0044,0.0066,-0.0569,-0.9819,3.019,-4.638,-1.531
1772934020314.0044,0.0062,-0.0578,-0.9784,2.914,-4.891,-1.391
1772934020314.0044,0.0049,-0.0588,-0.979,2.914,-5.049,-1.575
1772934020329.1677,0.01,-0.0593,-0.9786,2.774,-5.197,-1.391
1772934020329.1677,0.0086,-0.0564,-0.9776,2.896,-5.119,-1.155
1772934020329.1677,0.008,-0.056,-0.9776,2.861,-4.952,-1.566
1772934020329.1677,0.0071,-0.0537,-0.9798,2.669,-4.699,-1.549
1772934020329.1677,0.0093,-0.0549,-0.9782,2.888,-4.734,-1.33
1772934020329.1677,0.0089,-0.0538,-0.9788,2.896,-4.664,-1.566
1772934020329.1677,0.0072,-0.0565,-0.9792,2.958,-4.707,-1.724
1772934020329.1677,0.0082,-0.0561,-0.9775,2.914,-4.821,-1.636
1772934020329.1677,0.0079,-0.0545,-0.9791,2.958,-4.918,-1.575
1772934020329.1677,0.008,-0.0558,-0.9758,2.931,-4.804,-1.811
1772934020329.1677,0.0078,-0.0565,-0.9761,2.809,-4.926,-1.601
1772934020329.1677,0.009,-0.057,-0.9761,2.879,-5.022,-1.627
1772934020344.4045,0.0073,-0.0579,-0.9766,2.922,-4.594,-1.593
1772934020344.4045,0.0115,-0.058,-0.9777,3.272,-4.725,-1.663
1772934020344.4045,0.0081,-0.0571,-0.9756,3.447,-4.707,-1.663
1772934020344.4045,0.0096,-0.059,-0.9744,3.465,-4.673,-1.636
1772934020344.4045,0.01,-0.0578,-0.9753,3.553,-4.576,-1.724
1772934020344.4045,0.0103,-0.0589,-0.9737,3.439,-4.76,-1.715
1772934020344.4045,0.0132,-0.0608,-0.9745,3.561,-4.585,-1.82
1772934020344.4045,0.0099,-0.0608,-0.9725,3.369,-4.375,-1.82
1772934020344.4045,0.0117,-0.0631,-0.9732,3.246,-4.48,-1.724
1772934020344.4045,0.0143,-0.0625,-0.9761,3.229,-4.41,-1.619
1772934020344.4045,0.0132,-0.0618,-0.9718,3.22,-4.594,-1.514
1772934020344.4045,0.0098,-0.0636,-0.9725,3.203,-4.305,-1.593
1772934020360.3044,0.0106,-0.062,-0.9732,3.132,-4.27,-1.593
1772934020360.3044,0.0118,-0.063,-0.9733,3.098,-4.629,-1.584
1772934020360.3044,0.0103,-0.0606,-0.9754,3.141,-4.716,-1.374
1772934020360.3044,0.0102,-0.0634,-0.9757,3.167,-4.655,-1.234
1772934020360.3044,0.0109,-0.0609,-0.9774,3.08,-4.489,-1.269
1772934020360.3044,0.0101,-0.059,-0.9754,2.896,-4.62,-1.225
1772934020360.3044,0.0113,-0.0576,-0.9756,3.054,-4.62,-1.216
1772934020360.3044,0.0089,-0.0598,-0.9782,2.896,-4.366,-1.199
1772934020360.3044,0.0102,-0.0605,-0.9777,3.185,-4.541,-1.208
1772934020360.3044,0.0096,-0.0573,-0.9786,3.115,-4.69,-1.479
1772934020360.3044,0.0072,-0.0587,-0.9795,3.176,-4.707,-1.409
1772934020360.3044,0.0098,-0.0584,-0.9782,3.342,-4.559,-1.225
1772934020360.3044,0.0097,-0.0589,-0.9801,3.054,-4.567,-1.199
1772934020360.3044,0.0077,-0.0578,-0.9787,2.975,-4.436,-1.234
1772934020376.2043,0.0112,-0.0592,-0.9801,3.255,-4.638,-1.365
1772934020376.2043,0.0107,-0.0611,-0.9802,3.141,-4.48,-1.356
1772934020376.2043,0.0117,-0.0611,-0.9799,3.167,-4.384,-1.409
1772934020376.2043,0.01,-0.0612,-0.9794,3.308,-4.716,-1.566
1772934020376.2043,0.0103,-0.0628,-0.9798,3.194,-4.681,-1.461
1772934020376.2043,0.0119,-0.062,-0.9785,3.054,-4.699,-1.47
1772934020376.2043,0.0126,-0.0617,-0.9806,3.237,-4.812,-1.558
1772934020376.2043,0.0111,-0.0631,-0.9825,3.159,-4.673,-1.558
1772934020376.2043,0.011,-0.0607,-0.9794,2.958,-4.874,-1.488
1772934020376.2043,0.011,-0.0612,-0.9801,2.853,-4.944,-1.479
1772934020376.2043,0.0105,-0.0613,-0.9785,2.931,-4.944,-1.409
1772934020376.2043,0.0121,-0.0585,-0.9804,3.115,-4.804,-1.339
1772934020392.1333,0.0113,-0.0585,-0.9797,3.08,-5.022,-1.129
1772934020392.1333,0.011,-0.0606,-0.9801,2.94,-5.11,-1.339
1772934020392.1333,0.0102,-0.0612,-0.9822,2.844,-4.909,-1.347
1772934020392.1333,0.0109,-0.0587,-0.985,2.905,-5.11,-1.216
1772934020392.1333,0.0106,-0.0595,-0.9826,3.089,-5.162,-1.383
1772934020392.1333,0.0085,-0.0599,-0.9856,2.809,-5.04,-1.173
1772934020392.1333,0.0077,-0.0611,-0.9836,3.019,-5.119,-1.103
1772934020392.1333,0.0075,-0.0615,-0.9847,3.01,-5.189,-1.47
1772934020392.1333,0.0087,-0.0597,-0.9855,2.993,-5.381,-1.356
1772934020392.1333,0.0079,-0.0615,-0.9854,2.94,-5.189,-1.339
1772934020392.1333,0.0082,-0.0605,-0.9828,2.914,-5.197,-1.505
1772934020392.1333,0.0096,-0.0621,-0.9856,2.949,-5.407,-1.522
1772934020392.1333,0.0101,-0.0611,-0.985,2.791,-5.451,-1.54
1772934020407.2454,0.0079,-0.0604,-0.9818,2.826,-5.311,-1.549
1772934020407.2454,0.0092,-0.0587,-0.9851,2.73,-5.11,-1.689
1772934020407.2454,0.0089,-0.0597,-0.9825,2.853,-5.39,-1.61
1772934020407.2454,0.0075,-0.0606,-0.9834,2.783,-5.67,-1.435
1772934020407.2454,0.0101,-0.0609,-0.9812,2.66,-5.539,-1.409
1772934020407.2454,0.0106,-0.0612,-0.9817,2.8,-5.407,-1.575
1772934020407.2454,0.0117,-0.0576,-0.981,2.844,-5.513,-1.426
1772934020407.2454,0.0101,-0.06,-0.9825,2.73,-5.285,-1.558
1772934020407.2454,0.0088,-0.0575,-0.9836,2.66,-5.451,-1.54
1772934020407.2454,0.0123,-0.0599,-0.9822,2.599,-5.775,-1.645
1772934020407.2454,0.0119,-0.0576,-0.9805,2.599,-5.784,-1.566
1772934020407.2454,0.0109,-0.0573,-0.9794,2.739,-5.652,-1.627
1772934020423.0762,0.0127,-0.0594,-0.9782,2.634,-5.591,-1.488
1772934020423.0762,0.0099,-0.0586,-0.9809,2.748,-5.486,-1.496
1772934020423.0762,0.0108,-0.0591,-0.9799,2.59,-5.434,-1.409
1772934020423.0762,0.0125,-0.0589,-0.9772,2.476,-5.442,-1.488
1772934020423.0762,0.0122,-0.0584,-0.9757,2.634,-5.495,-1.374
1772934020423.0762,0.012,-0.0579,-0.9756,2.817,-5.232,-1.452
1772934020423.0762,0.0115,-0.0589,-0.9781,2.643,-5.189,-1.619
1772934020423.0762,0.0108,-0.057,-0.9789,2.695,-5.206,-1.593
1772934020423.0762,0.011,-0.057,-0.9763,2.66,-5.162,-1.75
1772934020423.0762,0.011,-0.0569,-0.9789,2.651,-5.145,-1.575
1772934020423.0762,0.0108,-0.0559,-0.979,2.59,-5.084,-1.75
1772934020423.0762,0.0112,-0.0573,-0.9787,2.572,-5.442,-1.461
1772934020423.0762,0.012,-0.0564,-0.9772,2.424,-5.311,-1.663
1772934020438.6792,0.0143,-0.0564,-0.9769,2.564,-5.206,-1.715
1772934020438.6792,0.012,-0.0567,-0.9772,2.406,-5.014,-1.759
1772934020438.6792,0.0119,-0.0561,-0.9778,2.555,-5.32,-1.68
1772934020438.6792,0.011,-0.057,-0.9765,2.433,-5.25,-1.558
1772934020438.6792,0.0134,-0.0597,-0.9774,2.406,-5.014,-1.514
1772934020438.6792,0.0127,-0.0595,-0.9757,2.354,-5.022,-1.496
1772934020438.6792,0.0109,-0.0569,-0.9801,2.345,-5.11,-1.663
1772934020438.6792,0.0152,-0.0584,-0.978,2.38,-5.075,-1.698
1772934020438.6792,0.0117,-0.0602,-0.9783,2.152,-5.18,-1.522
1772934020438.6792,0.0118,-0.0584,-0.9794,2.083,-4.909,-1.47
1772934020438.6792,0.0115,-0.06,-0.9757,1.96,-5.058,-1.514
1772934020438.6792,0.0112,-0.0624,-0.976,1.925,-5.241,-1.347
1772934020438.6792,0.0136,-0.0613,-0.9749,1.654,-5.049,-1.199
1772934020454.4072,0.0111,-0.0609,-0.978,1.706,-5.259,-1.33
1772934020454.4072,0.0106,-0.0612,-0.9729,1.522,-5.058,-1.312
1772934020454.4072,0.0101,-0.0626,-0.9756,1.347,-4.97,-1.173
1772934020454.4072,0.0124,-0.06,-0.9794,1.383,-4.926,-1.103
1772934020454.4072,0.0135,-0.0593,-0.978,1.199,-5.128,-0.945
1772934020454.4072,0.0108,-0.0604,-0.9794,1.216,-5.031,-1.155
1772934020454.4072,0.0121,-0.058,-0.9775,1.269,-4.69,-1.041
1772934020454.4072,0.011,-0.0583,-0.9756,1.33,-4.638,-1.129
1772934020454.4072,0.0088,-0.0587,-0.9765,1.356,-4.996,-1.006
1772934020454.4072,0.01,-0.0598,-0.9766,1.461,-5.022,-0.954
1772934020454.4072,0.0092,-0.0596,-0.9765,1.4,-4.926,-0.945
1772934020454.4072,0.0079,-0.0623,-0.977,1.444,-4.839,-0.989
1772934020454.4072,0.0105,-0.0609,-0.9758,1.645,-5.04,-0.971
1772934020469.685,0.0111,-0.0603,-0.9779,1.61,-4.742,-0.866
1772934020469.685,0.0089,-0.0601,-0.9769,1.75,-4.55,-0.858
1772934020469.685,0.0092,-0.0595,-0.9772,2.039,-4.603,-0.761
1772934020469.685,0.0113,-0.0611,-0.9797,2.065,-4.786,-0.919
1772934020469.685,0.0082,-0.0615,-0.9842,2.109,-4.445,-1.085
1772934020469.685,0.009,-0.0626,-0.982,2.135,-4.865,-1.164
1772934020469.685,0.0087,-0.0605,-0.9826,2.196,-4.734,-1.216
1772934020469.685,0.0087,-0.0616,-0.9827,2.371,-4.673,-1.216
1772934020469.685,0.009,-0.0611,-0.986,2.336,-4.848,-1.242
1772934020469.685,0.0081,-0.057,-0.9853,2.52,-4.795,-1.26
1772934020469.685,0.0077,-0.0548,-0.9872,2.678,-4.865,-1.12
1772934020469.685,0.0089,-0.0554,-0.9884,2.975,-4.524,-1.225
1772934020484.9824,0.0045,-0.0558,-0.9871,3.098,-4.734,-1.181
1772934020484.9824,0.007,-0.056,-0.9947,3.299,-4.848,-1.347
1772934020484.9824,0.0037,-0.0562,-0.9894,3.728,-4.979,-1.732
1772934020484.9824,0.0061,-0.055,-0.992,3.824,-4.961,-1.724
1772934020484.9824,0.0056,-0.0552,-0.9947,4.025,-5.066,-1.698
1772934020484.9824,0.0047,-0.0542,-0.993,4.34,-5.049,-1.864
1772934020484.9824,0.0079,-0.0561,-0.9962,4.673,-5.189,-1.846
1772934020484.9824,0.0079,-0.0526,-0.9946,4.926,-5.25,-1.776
1772934020484.9824,0.008,-0.0539,-0.9981,5.224,-5.232,-1.881
1772934020484.9824,0.0076,-0.0549,-0.9955,5.381,-5.311,-1.934
1772934020484.9824,0.0087,-0.0562,-0.9974,5.407,-5.679,-2.065
1772934020484.9824,0.0111,-0.0559,-0.9941,5.259,-5.644,-2.109
1772934020500.8286,0.0105,-0.0581,-0.9914,5.154,-5.793,-2.257
1772934020500.8286,0.0091,-0.059,-0.991,5.364,-5.67,-2.214
1772934020500.8286,0.0138,-0.0581,-0.9897,5.162,-5.959,-2.249
1772934020500.8286,0.0106,-0.0586,-0.9886,5.372,-6.099,-2.319
1772934020500.8286,0.0124,-0.0608,-0.9884,5.381,-6.143,-2.144
1772934020500.8286,0.0119,-0.0596,-0.9864,4.891,-6.335,-2.196
1772934020500.8286,0.0154,-0.0608,-0.9844,4.76,-6.23,-2.021
1772934020500.8286,0.0165,-0.0598,-0.9826,4.384,-6.466,-1.855
1772934020500.8286,0.0166,-0.0603,-0.9814,4.2,-6.554,-1.837
1772934020500.8286,0.0193,-0.0589,-0.9761,3.911,-6.492,-1.698
1772934020500.8286,0.0182,-0.0607,-0.9756,3.806,-6.317,-1.785
1772934020500.8286,0.0193,-0.0626,-0.9712,3.421,-6.65,-1.811
1772934020500.8286,0.0202,-0.0597,-0.9709,3.036,-6.554,-1.724
1772934020516.1536,0.021,-0.0586,-0.9681,2.87,-6.729,-1.759
1772934020516.1536,0.0219,-0.059,-0.9673,2.66,-6.79,-1.584
1772934020516.1536,0.0188,-0.0611,-0.9617,2.292,-6.65,-1.776
1772934020516.1536,0.0218,-0.0598,-0.9586,2.275,-6.466,-1.671
1772934020516.1536,0.0223,-0.0605,-0.9601,1.864,-6.353,-1.671
1772934020516.1536,0.022,-0.0573,-0.9619,1.61,-6.16,-1.584
1772934020516.1536,0.0209,-0.0564,-0.9584,1.452,-6.055,-1.829
1772934020516.1536,0.0188,-0.0563,-0.9593,1.225,-6.02,-1.514
1772934020516.1536,0.0177,-0.0578,-0.9589,1.006,-5.679,-1.496
1772934020516.1536,0.0192,-0.055,-0.959,0.858,-5.521,-1.68
1772934020516.1536,0.0189,-0.0533,-0.9614,0.998,-5.232,-1.601
1772934020516.1536,0.0156,-0.0519,-0.963,0.901,-5.32,-1.645
1772934020516.1536,0.015,-0.0528,-0.9636,1.146,-5.075,-1.698
1772934020531.435,0.0139,-0.0478,-0.9663,0.919,-4.961,-1.566
1772934020531.435,0.0121,-0.0489,-0.9679,0.954,-4.638,-1.496
1772934020531.435,0.0098,-0.0482,-0.9709,1.347,-4.559,-1.47
1772934020531.435,0.0121,-0.0478,-0.9694,1.505,-4.786,-1.645
1772934020531.435,0.0118,-0.0494,-0.9723,1.61,-4.112,-1.785
1772934020531.435,0.0079,-0.049,-0.9756,1.873,-4.183,-1.75
1772934020531.435,0.0069,-0.05,-0.9777,2.301,-4.077,-1.846
1772934020531.435,0.0065,-0.0513,-0.977,2.59,-3.99,-1.873
1772934020531.435,0.0062,-0.0529,-0.9778,2.888,-4.235,-1.829
1772934020531.435,0.0066,-0.0545,-0.9807,2.993,-4.016,-1.881
1772934020531.435,0.0067,-0.0571,-0.9814,3.281,-4.086,-1.759
1772934020531.435,0.0066,-0.059,-0.9834,3.631,-4.174,-2.065
1772934020546.9556,0.0071,-0.0589,-0.9819,3.701,-3.999,-2.179
1772934020546.9556,0.0074,-0.0626,-0.9813,3.754,-4.121,-1.785
1772934020546.9556,0.0074,-0.0628,-0.983,3.658,-4.051,-1.969
1772934020546.9556,0.008,-0.0642,-0.9805,3.518,-4.384,-2.118
1772934020546.9556,0.0061,-0.0659,-0.9825,3.5,-4.34,-2.292
1772934020546.9556,0.0079,-0.0668,-0.9789,3.736,-4.629,-2.223
1772934020546.9556,0.0082,-0.0671,-0.9774,3.404,-4.48,-2.24
1772934020546.9556,0.0079,-0.0648,-0.9758,3.272,-4.655,-2.231
1772934020546.9556,0.0071,-0.0675,-0.9745,3.045,-4.987,-2.039
1772934020546.9556,0.0063,-0.0657,-0.9725,2.756,-4.979,-2.039
1772934020546.9556,0.0074,-0.0687,-0.9702,2.704,-4.742,-2.004
1772934020546.9556,0.0081,-0.0652,-0.9714,2.616,-4.567,-1.654
1772934020546.9556,0.0057,-0.064,-0.9697,2.292,-4.76,-1.479
1772934020562.803,0.0072,-0.0637,-0.9686,2.406,-4.918,-1.531
1772934020562.803,0.0049,-0.062,-0.9686,2.345,-4.629,-1.365
1772934020562.803,0.0048,-0.0623,-0.9689,2.047,-4.489,-1.312
1772934020562.803,0.0071,-0.062,-0.9684,2.17,-4.681,-1.278
1772934020562.803,0.0051,-0.0622,-0.9694,1.969,-4.707,-1.444
1772934020562.803,0.006,-0.062,-0.9708,1.82,-4.812,-1.409
1772934020562.803,0.0055,-0.06,-0.9711,1.663,-4.585,-1.435
1772934020562.803,0.0047,-0.0607,-0.9711,1.522,-4.445,-1.278
1772934020562.803,0.0049,-0.0613,-0.9751,1.531,-4.489,-1.312
1772934020562.803,0.0057,-0.0599,-0.9736,1.645,-4.541,-1.234
1772934020562.803,0.0033,-0.0587,-0.9759,1.584,-4.673,-1.321
1772934020562.803,0.002,-0.0587,-0.9773,1.706,-4.603,-1.129
1772934020578.13,0.003,-0.0571,-0.9794,1.741,-4.576,-1.234
1772934020578.13,0.0024,-0.0587,-0.9828,1.768,-4.585,-1.067
1772934020578.13,0.002,-0.0577,-0.9844,1.873,-4.707,-1.365
1772934020578.13,0.0003,-0.055,-0.9881,1.96,-4.996,-1.216
1772934020578.13,0.0017,-0.0592,-0.9938,2.074,-5.206,-1.33
1772934020578.13,-0.0004,-0.057,-0.9938,2.38,-5.268,-1.103
1772934020578.13,-0.0007,-0.0575,-1.0011,2.529,-5.644,-1.19
1772934020578.13,-0.0012,-0.0588,-1.0048,2.905,-5.784,-1.374
1772934020578.13,0.0016,-0.0585,-1.0089,3.089,-6.23,-1.225
1772934020578.13,-0.0021,-0.0588,-1.0137,2.8,-6.571,-1.452
1772934020578.13,-0.0048,-0.0601,-1.0199,3.29,-6.904,-1.496
1772934020578.13,-0.0021,-0.059,-1.0221,3.684,-7.236,-1.496
1772934020578.13,-0.0016,-0.0624,-1.0254,3.675,-7.744,-1.619
1772934020593.3398,-0.0022,-0.0644,-1.0265,3.797,-8.172,-1.514
1772934020593.3398,-0.0034,-0.0663,-1.0266,3.841,-8.479,-1.619
1772934020593.3398,-0.0049,-0.0688,-1.029,3.99,-8.811,-2.074
1772934020593.3398,-0.0027,-0.0716,-1.0261,3.658,-8.951,-2.161
1772934020593.3398,-0.0056,-0.0726,-1.0236,3.395,-9.546,-2.039
1772934020593.3398,-0.0043,-0.0745,-1.0229,3.264,-9.686,-1.995
1772934020593.3398,-0.0024,-0.0762,-1.0171,3.098,-9.914,-1.829
1772934020593.3398,-0.0009,-0.0754,-1.0108,2.748,-9.94,-1.759
1772934020593.3398,0.0009,-0.0774,-1.0083,2.459,-10.098,-1.794
1772934020593.3398,0.0026,-0.0804,-1.0063,1.995,-10.211,-1.785
1772934020593.3398,0.0056,-0.0786,-1.003,1.715,-10.089,-1.558
1772934020593.3398,0.0111,-0.0773,-0.9991,1.496,-10.089,-1.61
1772934020609.3203,0.0129,-0.0752,-0.9983,1.032,-10.255,-1.566
1772934020609.3203,0.0146,-0.0767,-0.9964,0.718,-9.861,-1.312
1772934020609.3203,0.0175,-0.0717,-0.995,0.7,-9.975,-1.488
1772934020609.3203,0.0179,-0.0705,-0.9932,0.7,-10.307,-1.339
1772934020609.3203,0.0225,-0.0703,-0.9929,0.516,-10.211,-1.155
1772934020609.3203,0.0199,-0.0663,-0.9926,0.376,-10.22,-1.26
1772934020609.3203,0.0223,-0.0653,-0.9902,0.306,-10.141,-1.085
1772934020609.3203,0.0235,-0.0621,-0.9886,0.245,-10.168,-1.032
1772934020609.3203,0.0237,-0.0606,-0.9845,0.464,-10.176,-0.761
1772934020609.3203,0.0238,-0.064,-0.9812,0.394,-10.115,-0.849
1772934020609.3203,0.0219,-0.0595,-0.9775,0.49,-10.115,-1.041
1772934020609.3203,0.0257,-0.0608,-0.9766,0.446,-9.896,-1.094
1772934020609.3203,0.0252,-0.0622,-0.9707,0.884,-9.957,-0.901
1772934020624.9465,0.0252,-0.0595,-0.971,0.875,-9.826,-1.032
1772934020624.9465,0.0265,-0.0595,-0.9675,0.971,-9.494,-1.085
1772934020624.9465,0.0256,-0.0591,-0.9643,1.076,-9.293,-0.989
1772934020624.9465,0.026,-0.0564,-0.964,1.208,-9.354,-0.936
1772934020624.9465,0.026,-0.0594,-0.9584,1.409,-9.223,-1.085
1772934020624.9465,0.0275,-0.0583,-0.9536,1.365,-8.864,-1.137
1772934020624.9465,0.0281,-0.0578,-0.9523,1.514,-8.838,-1.173
1772934020624.9465,0.0311,-0.0592,-0.948,1.654,-8.453,-1.321
1772934020624.9465,0.0288,-0.0571,-0.9442,1.566,-8.269,-1.295
1772934020624.9465,0.0298,-0.0583,-0.9453,1.566,-7.761,-1.146
1772934020624.9465,0.0285,-0.057,-0.942,1.899,-7.534,-1.173
1772934020624.9465,0.0271,-0.0597,-0.9411,1.986,-7.114,-1.488
1772934020624.9465,0.0288,-0.0575,-0.9415,1.925,-6.904,-1.558
1772934020640.5916,0.0268,-0.0567,-0.9409,2.231,-6.598,-1.444
1772934020640.5916,0.0234,-0.0617,-0.9414,2.004,-6.151,-1.452
1772934020640.5916,0.0217,-0.0587,-0.9406,1.995,-5.556,-1.417
1772934020640.5916,0.0231,-0.0594,-0.9435,2.188,-5.399,-1.584
1772934020640.5916,0.019,-0.062,-0.9446,2.24,-5.058,-1.531
1772934020640.5916,0.0169,-0.0602,-0.9417,2.336,-4.707,-1.627
1772934020640.5916,0.0162,-0.0603,-0.9443,2.188,-4.287,-1.531
1772934020640.5916,0.013,-0.0593,-0.9457,2.389,-4.41,-1.732
1772934020640.5916,0.0118,-0.0579,-0.9464,2.205,-4.104,-1.829
1772934020640.5916,0.0101,-0.0583,-0.9506,2.345,-3.474,-1.776
1772934020640.5916,0.009,-0.0593,-0.9515,2.38,-3.325,-1.907
1772934020640.5916,0.0065,-0.0565,-0.9536,2.546,-3.203,-1.671
1772934020640.5916,0.005,-0.0546,-0.9554,2.607,-3.159,-1.566
1772934020655.96,0.006,-0.0578,-0.9615,2.66,-3.01,-1.461
1772934020655.96,0.0017,-0.0579,-0.9614,2.529,-2.817,-1.522
1772934020655.96,0.0041,-0.0569,-0.9634,2.651,-2.774,-1.339
1772934020655.96,0.004,-0.0573,-0.9659,2.66,-2.896,-1.435
1772934020655.96,0.0021,-0.0547,-0.9676,2.406,-2.625,-1.435
1772934020655.96,0.0011,-0.0561,-0.9712,2.459,-2.459,-1.225
1772934020655.96,-0.0007,-0.0565,-0.9717,2.529,-2.66,-1.461
1772934020655.96,0.0,-0.0555,-0.9738,2.59,-2.87,-1.383
1772934020655.96,-0.0016,-0.0515,-0.9777,2.292,-2.686,-1.295
1772934020655.96,-0.0041,-0.0497,-0.9792,2.091,-3.01,-1.312
1772934020655.96,-0.0025,-0.0518,-0.981,1.698,-2.958,-1.356
1772934020655.96,-0.0059,-0.0499,-0.9826,1.995,-3.299,-1.286
1772934020671.7283,-0.0044,-0.0511,-0.9856,1.899,-3.062,-1.208
1772934020671.7283,-0.0048,-0.0493,-0.9863,1.785,-3.211,-1.286
1772934020671.7283,-0.0063,-0.0489,-0.986,1.531,-3.377,-1.47
1772934020671.7283,-0.0061,-0.0484,-0.9878,1.566,-3.43,-1.304
1772934020671.7283,-0.0046,-0.0475,-0.9872,1.417,-3.754,-1.242
1772934020671.7283,-0.0058,-0.0473,-0.9878,1.4,-3.868,-1.269
1772934020671.7283,-0.0094,-0.0461,-0.988,1.312,-4.043,-1.33
1772934020671.7283,-0.0101,-0.0447,-0.9864,1.47,-4.34,-1.689
1772934020671.7283,-0.0081,-0.0448,-0.9865,1.452,-4.349,-1.417
1772934020671.7283,-0.0079,-0.0466,-0.9877,1.269,-4.183,-1.312
1772934020671.7283,-0.0067,-0.0472,-0.9828,1.409,-4.357,-1.417
1772934020671.7283,-0.0077,-0.0446,-0.9873,1.242,-4.611,-1.479
1772934020671.7283,-0.0056,-0.0469,-0.9829,1.103,-4.576,-1.488
1772934020687.0522,-0.0065,-0.0482,-0.9828,1.417,-4.716,-1.531
1772934020687.0522,-0.0043,-0.0459,-0.9834,1.155,-4.786,-1.549
1772934020687.0522,-0.0052,-0.0434,-0.9826,1.225,-4.681,-1.374
1772934020687.0522,-0.0043,-0.0459,-0.9801,1.242,-4.725,-1.4
1772934020687.0522,-0.0035,-0.0466,-0.9806,1.304,-4.742,-1.409
1772934020687.0522,-0.0034,-0.0476,-0.9804,1.488,-4.865,-1.619
1772934020687.0522,-0.0019,-0.0476,-0.9781,1.312,-4.909,-1.461
1772934020687.0522,-0.0002,-0.0462,-0.9777,1.251,-4.76,-1.549
1772934020687.0522,0.0009,-0.0477,-0.9737,1.356,-4.891,-1.444
1772934020687.0522,0.003,-0.0493,-0.9772,1.444,-4.909,-1.426
1772934020687.0522,0.0026,-0.0518,-0.9758,1.593,-4.655,-1.627
1772934020687.0522,0.003,-0.049,-0.9733,1.601,-4.795,-1.671
1772934020703.497,0.0023,-0.0497,-0.973,1.452,-4.926,-1.68
1772934020703.497,0.0032,-0.0493,-0.9728,1.61,-4.856,-1.593
1772934020703.497,0.0058,-0.0515,-0.9749,1.811,-4.734,-1.522
1772934020703.497,0.0049,-0.052,-0.9704,1.417,-4.812,-1.286
1772934020703.497,0.0045,-0.0519,-0.9707,1.619,-4.646,-1.452
1772934020703.497,0.0075,-0.0519,-0.9734,1.417,-4.305,-1.479
1772934020703.497,0.0085,-0.0523,-0.9701,1.417,-4.349,-1.452
1772934020703.497,0.0088,-0.0517,-0.9728,1.505,-4.296,-1.365
1772934020703.497,0.0074,-0.0522,-0.9724,1.706,-4.322,-1.251
1772934020703.497,0.009,-0.0516,-0.9719,1.601,-4.357,-1.391
1772934020703.497,0.0082,-0.0512,-0.9706,1.82,-4.287,-1.304
1772934020703.497,0.0074,-0.0515,-0.9713,1.82,-4.139,-1.444
1772934020703.497,0.009,-0.0528,-0.9736,1.698,-4.008,-1.417
1772934020719.0251,0.011,-0.0516,-0.9737,1.89,-4.008,-1.4
1772934020719.0251,0.0113,-0.0508,-0.9696,2.021,-3.973,-1.426
1772934020719.0251,0.0112,-0.0513,-0.9703,2.047,-3.902,-1.488
1772934020719.0251,0.0103,-0.0523,-0.9697,2.065,-3.719,-1.627
1772934020719.0251,0.0138,-0.0528,-0.971,2.083,-3.71,-1.558
1772934020719.0251,0.0131,-0.0513,-0.9709,2.196,-3.658,-1.286
1772934020719.0251,0.013,-0.0522,-0.9733,2.371,-3.824,-1.339
1772934020719.0251,0.0143,-0.0527,-0.9761,2.319,-3.631,-1.032
1772934020719.0251,0.0142,-0.0534,-0.9729,2.467,-3.587,-1.286
1772934020719.0251,0.0158,-0.0495,-0.971,2.459,-3.561,-1.155
1772934020719.0251,0.0174,-0.0517,-0.9745,2.651,-3.57,-1.286
1772934020719.0251,0.0191,-0.0522,-0.9762,2.66,-3.465,-1.024
1772934020719.0251,0.0188,-0.0542,-0.9745,2.476,-3.666,-1.067
1772934020734.617,0.0177,-0.0517,-0.9738,2.494,-3.421,-0.989
1772934020734.617,0.0183,-0.0534,-0.9739,2.607,-3.605,-1.041
1772934020734.617,0.0204,-0.0514,-0.9761,2.564,-3.587,-0.998
1772934020734.617,0.0167,-0.0523,-0.9748,2.467,-3.421,-0.98
1772934020734.617,0.0186,-0.0535,-0.9761,2.529,-3.526,-1.05
1772934020734.617,0.0192,-0.0517,-0.9774,2.397,-3.474,-0.936
1772934020734.617,0.0199,-0.0542,-0.9777,2.467,-3.447,-0.919
1772934020734.617,0.0188,-0.0509,-0.9784,2.538,-3.342,-0.945
1772934020734.617,0.0203,-0.0502,-0.978,2.651,-3.631,-0.866
1772934020734.617,0.0211,-0.0504,-0.9794,2.45,-3.544,-0.98
1772934020734.617,0.0212,-0.052,-0.9781,2.415,-3.491,-0.927
1772934020734.617,0.0206,-0.0515,-0.9813,2.459,-3.509,-0.98
1772934020734.617,0.0208,-0.0524,-0.979,2.433,-3.404,-0.91
1772934020749.7559,0.0215,-0.0506,-0.9801,2.511,-3.587,-0.84
1772934020749.7559,0.0206,-0.0505,-0.9807,2.538,-3.561,-1.199
1772934020749.7559,0.0198,-0.0529,-0.9798,2.397,-3.456,-1.426
1772934020749.7559,0.0209,-0.0514,-0.9816,2.555,-3.605,-1.278
1772934020749.7559,0.0193,-0.0498,-0.9803,2.607,-3.631,-1.496
1772934020749.7559,0.0196,-0.0519,-0.9816,2.783,-3.815,-1.4
1772934020749.7559,0.0173,-0.0519,-0.9809,2.704,-3.649,-1.286
1772934020749.7559,0.0187,-0.0528,-0.9822,2.721,-3.491,-1.391
1772934020749.7559,0.0205,-0.0504,-0.983,2.888,-3.561,-1.549
1772934020749.7559,0.0157,-0.0529,-0.9844,2.774,-3.605,-1.549
1772934020749.7559,0.0175,-0.053,-0.9834,2.914,-3.894,-1.627
1772934020749.7559,0.0193,-0.0547,-0.9837,2.914,-3.868,-1.496
1772934020765.7883,0.0174,-0.0518,-0.9837,2.817,-4.069,-1.776
1772934020765.7883,0.0161,-0.0532,-0.9828,2.993,-3.666,-1.794
1772934020765.7883,0.0132,-0.054,-0.9833,2.888,-3.675,-1.715
1772934020765.7883,0.0143,-0.0553,-0.9826,2.853,-3.596,-1.951
1772934020765.7883,0.0146,-0.0589,-0.983,3.15,-3.833,-1.995
1772934020765.7883,0.0114,-0.0584,-0.9822,3.526,-3.973,-1.934
1772934020765.7883,0.0106,-0.0581,-0.9805,3.351,-3.789,-1.934
1772934020765.7883,0.0071,-0.0554,-0.9793,3.281,-3.85,-1.846
1772934020765.7883,0.0059,-0.0512,-0.9831,3.229,-3.631,-2.039
1772934020765.7883,0.0033,-0.0461,-0.9824,3.027,-3.623,-2.126
1772934020765.7883,0.0044,-0.0471,-0.9836,2.993,-3.911,-2.152
1772934020765.7883,0.0034,-0.049,-0.9842,2.844,-3.894,-2.214
1772934020765.7883,0.0043,-0.054,-0.9844,2.949,-4.008,-2.494
1772934020781.4197,0.0035,-0.0571,-0.9812,3.001,-3.999,-2.555
1772934020781.4197,0.0081,-0.0609,-0.9784,2.94,-3.929,-2.266
1772934020781.4197,0.007,-0.0629,-0.9771,2.984,-4.034,-2.118
1772934020781.4197,0.0089,-0.0637,-0.9762,2.975,-4.095,-2.118
1772934020781.4197,0.009,-0.0652,-0.9764,2.844,-3.973,-1.881
1772934020781.4197,0.0114,-0.0662,-0.9753,2.756,-4.156,-1.698
1772934020781.4197,0.0104,-0.0671,-0.9749,3.106,-4.2,-1.715
1772934020781.4197,0.0101,-0.0681,-0.9795,2.914,-4.244,-1.452
1772934020781.4197,0.0106,-0.066,-0.9777,2.914,-3.754,-1.181
1772934020781.4197,0.0093,-0.0651,-0.9767,2.826,-3.868,-1.199
1772934020781.4197,0.0077,-0.0647,-0.9744,2.581,-3.964,-1.444
1772934020781.4197,0.0071,-0.0647,-0.9753,2.695,-3.902,-1.383
1772934020781.4197,0.0067,-0.067,-0.976,2.634,-3.894,-1.216
1772934020797.4075,0.0084,-0.0661,-0.9776,2.371,-3.71,-1.199
1772934020797.4075,0.0081,-0.0661,-0.9765,2.328,-3.745,-0.936
1772934020797.4075,0.0081,-0.0645,-0.9787,2.31,-4.043,-1.251
1772934020797.4075,0.0077,-0.0687,-0.9762,2.406,-3.876,-1.12
1772934020797.4075,0.0081,-0.0654,-0.9758,2.319,-3.806,-1.015
1772934020797.4075,0.0077,-0.0651,-0.9754,2.397,-3.614,-0.858
1772934020797.4075,0.0083,-0.0641,-0.9781,2.502,-3.684,-1.015
1772934020797.4075,0.007,-0.0645,-0.9766,2.625,-3.701,-1.304
1772934020797.4075,0.0068,-0.062,-0.9775,2.529,-3.649,-0.954
1772934020797.4075,0.0065,-0.0625,-0.9776,2.31,-3.587,-0.971
1772934020797.4075,0.0074,-0.063,-0.9816,2.336,-3.334,-0.998
1772934020797.4075,0.0085,-0.062,-0.9794,2.371,-3.631,-1.05
1772934020812.9165,0.0094,-0.0618,-0.9797,2.817,-3.797,-1.094
1772934020812.9165,0.0087,-0.0613,-0.9821,2.783,-3.526,-1.085
1772934020812.9165,0.0117,-0.0611,-0.9816,2.704,-3.22,-1.19
1772934020812.9165,0.0093,-0.0601,-0.9798,3.001,-3.316,-1.444
1772934020812.9165,0.0102,-0.0588,-0.9809,3.08,-3.29,-1.522
1772934020812.9165,0.0082,-0.058,-0.9823,3.404,-3.316,-1.391
1772934020812.9165,0.0099,-0.0605,-0.984,3.159,-3.22,-1.522
1772934020812.9165,0.0099,-0.0619,-0.984,3.246,-3.719,-1.461
1772934020812.9165,0.0093,-0.0606,-0.983,3.141,-3.447,-1.444
1772934020812.9165,0.0128,-0.0605,-0.9814,3.369,-3.482,-1.601
1772934020812.9165,0.0112,-0.0623,-0.9803,3.308,-3.482,-1.496
1772934020812.9165,0.0118,-0.06,-0.979,3.316,-3.308,-1.531
1772934020812.9165,0.0096,-0.0575,-0.9827,3.211,-3.08,-1.549
1772934020828.057,0.0127,-0.0618,-0.9792,2.826,-3.098,-1.426
1772934020828.057,0.0136,-0.0577,-0.9804,2.949,-2.975,-1.383
1772934020828.057,0.0144,-0.06,-0.98,2.844,-3.22,-1.304
1772934020828.057,0.0132,-0.0597,-0.979,2.686,-3.036,-1.374
1772934020828.057,0.0115,-0.0597,-0.9761,2.607,-3.176,-1.461
1772934020828.057,0.0114,-0.0583,-0.9822,2.362,-3.045,-1.374
1772934020828.057,0.0106,-0.0595,-0.9787,2.275,-3.071,-1.173
1772934020828.057,0.0106,-0.0592,-0.9787,2.292,-3.482,-1.321
1772934020828.057,0.0118,-0.0576,-0.977,2.371,-3.526,-1.417
1772934020828.057,0.0119,-0.0572,-0.9782,2.205,-3.237,-1.426
1772934020828.057,0.0123,-0.0581,-0.9787,1.942,-3.08,-1.365
1772934020828.057,0.0124,-0.0566,-0.9761,1.881,-3.08,-1.216
1772934020843.4128,0.0108,-0.0554,-0.9733,1.934,-2.809,-1.242
1772934020843.4128,0.0122,-0.0586,-0.9761,1.706,-2.914,-1.26
1772934020843.4128,0.0125,-0.0572,-0.9747,1.593,-2.949,-1.417
1772934020843.4128,0.0129,-0.0552,-0.9764,1.645,-2.958,-1.479
1772934020843.4128,0.0117,-0.0559,-0.9767,1.444,-2.94,-1.33
1772934020843.4128,0.0091,-0.0571,-0.9748,1.461,-2.774,-1.479
1772934020843.4128,0.0102,-0.0574,-0.9765,1.488,-2.555,-1.076
1772934020843.4128,0.0092,-0.0565,-0.9751,1.4,-2.826,-1.312
1772934020843.4128,0.009,-0.0558,-0.9784,1.584,-2.712,-1.312
1772934020843.4128,0.0106,-0.0574,-0.9754,1.636,-2.686,-1.181
1772934020843.4128,0.0106,-0.0543,-0.978,1.593,-2.748,-1.216
1772934020843.4128,0.0088,-0.0567,-0.9782,1.925,-2.686,-1.225
1772934020843.4128,0.0087,-0.0559,-0.9766,1.654,-2.669,-1.208
1772934020858.2732,0.0099,-0.0553,-0.9765,1.899,-2.756,-1.19
1772934020858.2732,0.0088,-0.052,-0.9783,1.942,-2.511,-1.295
1772934020858.2732,0.0096,-0.0545,-0.9796,2.126,-2.433,-1.312
1772934020858.2732,0.0095,-0.0554,-0.9837,2.415,-2.634,-1.269
1772934020858.2732,0.0098,-0.0542,-0.9828,2.529,-2.546,-1.444
1772934020858.2732,0.0084,-0.0529,-0.9817,2.73,-2.686,-1.496
1772934020858.2732,0.01,-0.0564,-0.9873,2.739,-2.73,-1.663
1772934020858.2732,0.0098,-0.0556,-0.9851,2.914,-2.73,-1.452
1772934020858.2732,0.009,-0.0558,-0.9838,2.931,-2.905,-1.488
1772934020858.2732,0.0074,-0.0549,-0.9867,2.949,-3.141,-1.645
1772934020858.2732,0.0096,-0.0573,-0.9842,2.94,-3.019,-1.488
1772934020858.2732,0.0082,-0.0563,-0.9872,3.15,-3.054,-1.663
1772934020874.208,0.0123,-0.0553,-0.9875,3.203,-3.001,-1.505
1772934020874.208,0.0117,-0.0569,-0.9906,3.176,-3.054,-1.409
1772934020874.208,0.0103,-0.0572,-0.986,3.054,-3.404,-1.383
1772934020874.208,0.0109,-0.0548,-0.9858,2.905,-3.553,-1.339
1772934020874.208,0.011,-0.0556,-0.9859,3.141,-3.482,-1.356
1772934020874.208,0.0124,-0.0568,-0.9877,3.089,-3.456,-1.339
1772934020874.208,0.0115,-0.0576,-0.987,2.958,-3.474,-1.312
1772934020874.208,0.0142,-0.0551,-0.9878,3.115,-3.754,-1.269
1772934020874.208,0.0165,-0.057,-0.9849,3.167,-3.736,-1.444
1772934020874.208,0.0152,-0.0551,-0.9844,3.334,-3.841,-1.208
1772934020874.208,0.0136,-0.0556,-0.9867,3.098,-3.587,-1.365
1772934020874.208,0.0154,-0.0565,-0.9851,3.29,-3.85,-1.269
1772934020874.208,0.0146,-0.0544,-0.9848,3.413,-4.06,-1.269
1772934020890.0574,0.0181,-0.0537,-0.9865,3.264,-4.025,-1.417
1772934020890.0574,0.0195,-0.0542,-0.986,3.203,-4.104,-1.627
1772934020890.0574,0.018,-0.0541,-0.9869,3.325,-4.095,-1.54
1772934020890.0574,0.0217,-0.0554,-0.985,3.299,-3.964,-1.47
1772934020890.0574,0.018,-0.055,-0.9847,3.08,-4.156,-1.575
1772934020890.0574,0.0184,-0.0554,-0.9848,3.071,-4.077,-1.452
1772934020890.0574,0.0212,-0.0531,-0.9834,3.159,-3.815,-1.593
1772934020890.0574,0.0201,-0.0545,-0.9841,3.045,-4.034,-1.531
1772934020890.0574,0.0207,-0.0551,-0.9822,2.817,-4.034,-1.54
1772934020890.0574,0.0214,-0.0548,-0.9817,2.791,-3.789,-1.409
1772934020890.0574,0.0233,-0.0541,-0.9834,2.783,-4.086,-1.33
1772934020890.0574,0.0224,-0.0531,-0.983,2.739,-4.043,-1.33
1772934020890.0574,0.0234,-0.0528,-0.9821,2.765,-3.833,-1.321
1772934020905.878,0.0251,-0.0511,-0.9812,2.494,-4.051,-1.383
1772934020905.878,0.0257,-0.052,-0.9794,2.467,-3.85,-1.155
1772934020905.878,0.0262,-0.0529,-0.9805,2.572,-4.051,-1.234
1772934020905.878,0.0249,-0.0556,-0.9806,2.266,-4.008,-1.015
1772934020905.878,0.0243,-0.0564,-0.9788,2.284,-4.112,-0.823
1772934020905.878,0.0268,-0.059,-0.9788,2.231,-4.008,-0.866
1772934020905.878,0.0249,-0.0577,-0.9769,2.135,-4.025,-0.7
1772934020905.878,0.0258,-0.0579,-0.9792,2.065,-4.27,-0.691
1772934020905.878,0.0265,-0.0573,-0.9791,2.083,-3.946,-0.49
1772934020905.878,0.025,-0.0561,-0.9775,2.144,-3.902,-0.665
1772934020905.878,0.0281,-0.0567,-0.9778,1.942,-3.806,-0.56
1772934020905.878,0.0258,-0.0596,-0.9786,2.065,-3.876,-0.525
1772934020905.878,0.0288,-0.0579,-0.9786,2.223,-3.754,-0.464
1772934020921.3135,0.0272,-0.055,-0.9805,2.118,-3.833,-0.341
1772934020921.3135,0.0253,-0.057,-0.9772,2.118,-3.675,-0.613
1772934020921.3135,0.0257,-0.0554,-0.9782,2.275,-3.833,-0.787
1772934020921.3135,0.0246,-0.0563,-0.9785,2.502,-3.806,-0.744
1772934020921.3135,0.0248,-0.0538,-0.977,2.371,-3.719,-0.866
1772934020921.3135,0.025,-0.0534,-0.9803,2.59,-3.911,-0.892
1772934020921.3135,0.0266,-0.0544,-0.979,2.66,-3.666,-0.936
1772934020921.3135,0.0253,-0.0554,-0.9798,2.835,-3.754,-0.989
1772934020921.3135,0.0257,-0.0539,-0.9811,2.975,-3.745,-0.831
1772934020921.3135,0.0257,-0.0546,-0.9794,2.8,-3.631,-0.98
1772934020921.3135,0.0246,-0.0559,-0.9811,2.774,-3.544,-1.225
1772934020921.3135,0.0255,-0.0525,-0.9814,2.8,-3.596,-1.488
1772934020936.644,0.0248,-0.0526,-0.9806,3.019,-4.086,-1.505
1772934020936.644,0.0253,-0.0561,-0.981,2.966,-3.841,-1.26
1772934020936.644,0.0224,-0.0536,-0.98,2.922,-3.797,-1.059
1772934020936.644,0.0236,-0.0554,-0.9822,2.853,-3.71,-1.295
1772934020936.644,0.0235,-0.0549,-0.98,2.809,-3.684,-1.251
1772934020936.644,0.0253,-0.0546,-0.9793,2.835,-3.71,-1.137
1772934020936.644,0.0234,-0.0519,-0.9796,2.791,-3.885,-1.225
1772934020936.644,0.0216,-0.0504,-0.982,2.739,-3.868,-1.05
1772934020936.644,0.0243,-0.0509,-0.9797,2.66,-3.754,-1.085
1772934020936.644,0.0255,-0.0489,-0.9809,2.529,-3.701,-0.998
1772934020936.644,0.0233,-0.05,-0.9813,2.389,-3.719,-1.085
1772934020936.644,0.0239,-0.0509,-0.9817,2.581,-4.244,-1.19
1772934020951.9023,0.0229,-0.0515,-0.9788,2.538,-4.349,-1.304
1772934020951.9023,0.0226,-0.0522,-0.9828,2.783,-4.226,-0.998
1772934020951.9023,0.0186,-0.0548,-0.98,2.861,-4.218,-1.059
1772934020951.9023,0.0224,-0.0537,-0.9816,2.66,-4.235,-1.208
1772934020951.9023,0.0217,-0.0534,-0.9805,2.555,-4.2,-1.225
1772934020951.9023,0.0191,-0.0525,-0.9805,2.695,-4.139,-0.927
1772934020951.9023,0.0182,-0.0531,-0.9793,2.599,-4.13,-1.146
1772934020951.9023,0.0201,-0.0527,-0.9798,2.555,-4.27,-1.391
1772934020951.9023,0.0194,-0.0534,-0.9802,2.581,-4.357,-1.383
1772934020951.9023,0.021,-0.0535,-0.9808,2.739,-4.375,-1.278
1772934020951.9023,0.0187,-0.0523,-0.9783,2.59,-4.077,-1.312
1772934020951.9023,0.0192,-0.0511,-0.9797,2.756,-4.191,-1.575
1772934020951.9023,0.0178,-0.0543,-0.9801,2.651,-4.27,-1.488
1772934020968.0188,0.0179,-0.0519,-0.9814,2.686,-4.043,-1.505
1772934020968.0188,0.018,-0.0508,-0.9767,2.572,-4.174,-1.391
1772934020968.0188,0.0178,-0.0504,-0.9803,2.494,-4.104,-1.505
1772934020968.0188,0.014,-0.0486,-0.9794,2.538,-4.209,-1.61
1772934020968.0188,0.0166,-0.0499,-0.9815,2.485,-4.506,-1.768
1772934020968.0188,0.0151,-0.0495,-0.979,2.529,-4.331,-1.671
1772934020968.0188,0.0134,-0.0488,-0.9776,2.643,-4.069,-1.356
1772934020968.0188,0.0152,-0.0512,-0.9814,2.686,-4.077,-1.461
1772934020968.0188,0.0139,-0.0512,-0.9771,2.879,-4.043,-1.645
1772934020968.0188,0.015,-0.0505,-0.9806,2.756,-4.375,-1.601
1772934020968.0188,0.0139,-0.0508,-0.9955,2.931,-4.357,-1.558
1772934020968.0188,0.0127,-0.0481,-0.9689,2.896,-4.419,-1.26
1772934020968.0188,0.0156,-0.0501,-0.9861,2.879,-4.638,-1.558
1772934020983.6458,0.0131,-0.0513,-0.9785,3.036,-4.357,-1.496
1772934020983.6458,0.0132,-0.0522,-0.9772,3.203,-4.305,-1.558
1772934020983.6458,0.0118,-0.0536,-0.9776,3.316,-4.366,-1.417
1772934020983.6458,0.0143,-0.0559,-0.9769,3.316,-4.41,-1.698
1772934020983.6458,0.0134,-0.0559,-0.9759,3.194,-4.401,-1.759
1772934020983.6458,0.0156,-0.0559,-0.9767,3.211,-4.331,-1.645
1772934020983.6458,0.013,-0.0559,-0.9772,3.054,-4.226,-1.496
1772934020983.6458,0.0133,-0.0544,-0.9775,3.159,-4.331,-1.496
1772934020983.6458,0.0159,-0.0569,-0.9768,3.194,-4.112,-1.4
1772934020983.6458,0.013,-0.0559,-0.9738,3.071,-4.165,-1.558
1772934020983.6458,0.011,-0.0561,-0.9743,3.045,-4.008,-1.321
1772934020983.6458,0.0138,-0.0566,-0.9727,2.853,-4.13,-1.374
1772934020983.6458,0.0146,-0.0574,-0.9732,2.826,-4.016,-1.208
1772934020999.6362,0.0167,-0.0572,-0.9729,2.844,-4.086,-1.295
1772934020999.6362,0.014,-0.057,-0.9711,2.704,-3.955,-1.242
1772934020999.6362,0.014,-0.0567,-0.9725,2.502,-4.06,-1.251
1772934020999.6362,0.0135,-0.0558,-0.9726,2.485,-4.253,-1.181
1772934020999.6362,0.014,-0.0543,-0.9704,2.31,-4.279,-1.006
1772934020999.6362,0.0151,-0.0548,-0.9728,2.266,-4.008,-1.181
1772934020999.6362,0.0166,-0.0551,-0.9737,2.083,-3.745,-1.006
1772934020999.6362,0.015,-0.0534,-0.9734,2.223,-3.763,-0.927
1772934020999.6362,0.0158,-0.0519,-0.9726,1.89,-3.824,-1.041
1772934020999.6362,0.0167,-0.0555,-0.9711,1.881,-3.964,-1.076
1772934020999.6362,0.0171,-0.0525,-0.9738,1.837,-3.92,-1.024
1772934020999.6362,0.0151,-0.052,-0.9724,1.785,-3.789,-1.041
1772934021014.8037,0.0151,-0.0525,-0.9724,1.785,-3.605,-0.989
1772934021014.8037,0.0137,-0.05,-0.9733,1.925,-3.78,-1.006
1772934021014.8037,0.0173,-0.0511,-0.9722,2.039,-3.728,-1.032
1772934021014.8037,0.0165,-0.0498,-0.9719,1.802,-3.876,-1.041
1772934021014.8037,0.0149,-0.0526,-0.9723,1.916,-3.509,-1.321
1772934021014.8037,0.0152,-0.0524,-0.9739,1.925,-3.456,-1.216
1772934021014.8037,0.0161,-0.0504,-0.9739,2.188,-3.64,-1.417
1772934021014.8037,0.0151,-0.053,-0.9749,2.013,-3.465,-1.321
1772934021014.8037,0.0162,-0.0503,-0.9775,2.284,-3.649,-1.304
1772934021014.8037,0.0135,-0.0472,-0.976,2.188,-3.841,-1.208
1772934021014.8037,0.014,-0.0503,-0.9747,2.266,-3.763,-1.234
1772934021014.8037,0.0153,-0.0483,-0.9784,2.257,-3.579,-1.391
1772934021014.8037,0.0185,-0.0482,-0.9771,2.205,-3.36,-1.304
1772934021030.3967,0.0156,-0.0476,-0.9797,2.459,-3.815,-1.452
1772934021030.3967,0.0181,-0.047,-0.9806,2.555,-3.649,-1.435
1772934021030.3967,0.0168,-0.048,-0.9806,2.581,-3.526,-1.47
1772934021030.3967,0.0171,-0.047,-0.9794,2.599,-3.675,-1.452
1772934021030.3967,0.0196,-0.0492,-0.9781,2.494,-3.553,-1.479
1772934021030.3967,0.0179,-0.0475,-0.979,2.564,-3.631,-1.479
1772934021030.3967,0.016,-0.0493,-0.9814,2.581,-3.675,-1.768
1772934021030.3967,0.0182,-0.0496,-0.982,2.8,-3.465,-1.829
1772934021030.3967,0.0165,-0.0519,-0.9812,2.817,-3.474,-1.601
1772934021030.3967,0.0177,-0.0514,-0.9834,2.905,-3.78,-1.698
1772934021030.3967,0.0188,-0.0511,-0.9855,3.176,-3.745,-1.942
1772934021030.3967,0.017,-0.0533,-0.9806,3.15,-3.5,-1.654
1772934021045.8564,0.0181,-0.0531,-0.9835,3.124,-3.763,-1.794
1772934021045.8564,0.0158,-0.0535,-0.9834,3.237,-4.016,-1.496
1772934021045.8564,0.0183,-0.0543,-0.9861,3.211,-4.209,-1.925
1772934021045.8564,0.0168,-0.0545,-0.9825,3.316,-3.789,-1.732
1772934021045.8564,0.0176,-0.0534,-0.9865,3.526,-4.008,-1.925
1772934021045.8564,0.0177,-0.0555,-0.9854,3.745,-4.112,-1.986
1772934021045.8564,0.0156,-0.0578,-0.9864,3.658,-3.999,-1.82
1772934021045.8564,0.0187,-0.0576,-0.9853,3.806,-4.191,-1.978
1772934021045.8564,0.0183,-0.0581,-0.9866,3.824,-4.008,-1.951
1772934021045.8564,0.0182,-0.0572,-0.9851,3.658,-4.147,-1.855
1772934021045.8564,0.0198,-0.0576,-0.9842,3.973,-4.524,-1.995
1772934021045.8564,0.0184,-0.0558,-0.986,3.876,-4.086,-1.873
1772934021045.8564,0.0179,-0.0569,-0.9861,3.841,-4.139,-1.724
1772934021061.0308,0.0214,-0.0546,-0.9855,3.763,-4.253,-1.811
1772934021061.0308,0.0187,-0.0574,-0.9865,3.894,-4.506,-1.802
1772934021061.0308,0.0193,-0.0567,-0.9837,3.929,-4.445,-1.873
1772934021061.0308,0.0197,-0.0586,-0.9853,3.736,-4.296,-1.566
1772934021061.0308,0.0218,-0.0539,-0.9848,3.763,-4.296,-1.584
1772934021061.0308,0.0212,-0.0547,-0.9851,3.99,-4.664,-1.601
1772934021061.0308,0.0226,-0.0559,-0.9832,3.859,-4.445,-1.732
1772934021061.0308,0.0245,-0.0551,-0.9881,3.815,-4.655,-1.794
1772934021061.0308,0.024,-0.0567,-0.9862,3.57,-4.55,-1.759
1772934021061.0308,0.0248,-0.0562,-0.987,3.561,-4.769,-1.531
1772934021061.0308,0.0243,-0.059,-0.9828,3.675,-4.664,-1.566
1772934021061.0308,0.0245,-0.0576,-0.985,3.518,-4.725,-1.881
1772934021077.0166,0.0232,-0.0576,-0.9847,3.386,-4.865,-1.61
1772934021077.0166,0.0256,-0.0579,-0.9826,3.229,-4.777,-1.732
1772934021077.0166,0.0248,-0.0573,-0.9853,3.089,-4.812,-1.663
1772934021077.0166,0.0254,-0.0554,-0.9823,3.308,-4.996,-1.601
1772934021077.0166,0.0246,-0.0578,-0.9801,3.15,-5.11,-1.514
1772934021077.0166,0.0222,-0.056,-0.9838,2.765,-4.848,-1.339
1772934021077.0166,0.0258,-0.0533,-0.9817,2.835,-4.839,-1.321
1772934021077.0166,0.0251,-0.0565,-0.9812,2.826,-4.673,-1.732
1772934021077.0166,0.0249,-0.0562,-0.9828,2.905,-4.97,-1.759
1772934021077.0166,0.0231,-0.0559,-0.9827,2.704,-5.224,-1.619
1772934021077.0166,0.022,-0.0562,-0.9808,2.529,-5.005,-1.601
1772934021077.0166,0.0259,-0.0565,-0.9774,2.546,-5.058,-1.575
1772934021077.0166,0.0243,-0.0571,-0.9811,2.371,-4.952,-1.435
1772934021092.2158,0.0243,-0.0594,-0.9812,2.397,-5.11,-1.391
1772934021092.2158,0.0239,-0.0589,-0.9816,2.179,-4.987,-1.785
1772934021092.2158,0.0221,-0.06,-0.9789,2.249,-5.075,-1.706
1772934021092.2158,0.0227,-0.0578,-0.9802,2.249,-4.707,-1.689
1772934021092.2158,0.0242,-0.06,-0.9798,2.196,-4.646,-1.61
1772934021092.2158,0.0218,-0.0595,-0.9795,2.17,-4.681,-1.732
1772934021092.2158,0.0225,-0.0595,-0.9753,1.995,-4.97,-1.627
1772934021092.2158,0.0238,-0.0598,-0.9755,2.135,-5.005,-1.549
1772934021092.2158,0.0227,-0.0581,-0.9751,2.126,-4.777,-1.251
1772934021092.2158,0.023,-0.0617,-0.979,2.257,-4.996,-1.435
1772934021092.2158,0.0231,-0.0614,-0.9773,2.196,-4.856,-1.383
1772934021092.2158,0.0243,-0.0603,-0.9784,1.899,-4.506,-1.347
1772934021092.2158,0.0231,-0.0587,-0.979,1.978,-4.41,-1.461
1772934021108.2688,0.0228,-0.06,-0.9757,1.951,-4.515,-1.321
1772934021108.2688,0.0254,-0.0583,-0.9761,1.978,-4.209,-1.225
1772934021108.2688,0.0236,-0.0602,-0.9761,1.899,-4.34,-1.269
1772934021108.2688,0.0264,-0.0586,-0.9749,1.916,-4.428,-1.173
1772934021108.2688,0.0233,-0.0597,-0.9773,1.969,-4.428,-1.339
1772934021108.2688,0.0245,-0.0603,-0.9755,1.873,-4.296,-1.269
1772934021108.2688,0.0209,-0.0612,-0.9767,1.907,-4.226,-1.47
1772934021108.2688,0.0234,-0.0569,-0.9775,2.074,-4.261,-1.059
1772934021108.2688,0.0243,-0.059,-0.9761,2.24,-4.27,-1.242
1772934021108.2688,0.0242,-0.0587,-0.9772,2.091,-4.314,-1.015
1772934021108.2688,0.0224,-0.0558,-0.9757,2.179,-4.226,-1.015
1772934021108.2688,0.0234,-0.0559,-0.9769,2.047,-3.999,-1.435
1772934021123.9866,0.0207,-0.0586,-0.9744,2.083,-4.06,-1.33
1772934021123.9866,0.0219,-0.0555,-0.976,2.065,-4.034,-1.47
1772934021123.9866,0.0201,-0.0572,-0.977,2.17,-4.06,-1.269
1772934021123.9866,0.0204,-0.0578,-0.9756,1.978,-4.226,-1.032
1772934021123.9866,0.0229,-0.0556,-0.9743,1.907,-4.13,-1.146
1772934021123.9866,0.0223,-0.0547,-0.9765,2.065,-4.2,-1.155
1772934021123.9866,0.0224,-0.0584,-0.975,2.047,-4.156,-1.155
1772934021123.9866,0.0209,-0.0539,-0.9764,2.118,-3.719,-1.129
1772934021123.9866,0.021,-0.0571,-0.9769,2.074,-3.797,-0.954
1772934021123.9866,0.0196,-0.0545,-0.9767,1.864,-3.973,-1.173
1772934021123.9866,0.018,-0.0562,-0.9773,2.056,-4.235,-1.225
1772934021123.9866,0.0187,-0.0551,-0.9787,1.969,-4.069,-0.787
1772934021123.9866,0.0199,-0.0547,-0.977,1.969,-4.112,-1.006
1772934021139.6472,0.0173,-0.0531,-0.9787,2.144,-3.964,-0.98
1772934021139.6472,0.0192,-0.0542,-0.9793,2.284,-4.016,-1.05
1772934021139.6472,0.02,-0.0526,-0.9786,2.144,-4.06,-1.05
1772934021139.6472,0.0215,-0.0541,-0.978,2.292,-3.955,-1.304
1772934021139.6472,0.0204,-0.0523,-0.9776,2.345,-3.981,-1.181
1772934021139.6472,0.0196,-0.0547,-0.9762,2.45,-4.104,-1.295
1772934021139.6472,0.019,-0.052,-0.977,2.459,-3.964,-1.173
1772934021139.6472,0.0194,-0.0549,-0.9776,2.59,-3.833,-1.304
1772934021139.6472,0.0195,-0.0528,-0.9787,2.643,-4.034,-1.409
1772934021139.6472,0.0198,-0.053,-0.9778,2.651,-3.789,-1.461
1772934021139.6472,0.0175,-0.0519,-0.9776,2.765,-3.876,-1.312
1772934021139.6472,0.0212,-0.0516,-0.9781,2.975,-4.104,-1.496
1772934021139.6472,0.0195,-0.0525,-0.9798,2.712,-3.745,-1.54
1772934021154.8308,0.0215,-0.0535,-0.9775,2.765,-3.833,-1.549
1772934021154.8308,0.0217,-0.0529,-0.9754,3.019,-3.763,-1.601
1772934021154.8308,0.0208,-0.0521,-0.9762,3.089,-3.955,-1.61
1772934021154.8308,0.0197,-0.0516,-0.9789,3.062,-4.139,-1.636
1772934021154.8308,0.0193,-0.0518,-0.9786,3.115,-3.833,-1.374
1772934021154.8308,0.0204,-0.0534,-0.9786,3.019,-3.902,-1.269
1772934021154.8308,0.0215,-0.0507,-0.9792,2.984,-3.938,-1.444
1772934021154.8308,0.022,-0.05,-0.9764,3.115,-3.929,-1.347
1772934021154.8308,0.0204,-0.0529,-0.9783,3.071,-3.902,-1.374
1772934021154.8308,0.0201,-0.0515,-0.9779,3.045,-4.139,-1.024
1772934021154.8308,0.0204,-0.0523,-0.9792,3.036,-4.008,-1.356
1772934021154.8308,0.0231,-0.0523,-0.9791,3.098,-4.077,-1.391
1772934021170.244,0.0221,-0.0533,-0.9777,2.896,-4.139,-1.304
1772934021170.244,0.0217,-0.0548,-0.9777,3.124,-4.506,-1.26
1772934021170.244,0.0212,-0.0517,-0.9773,3.019,-4.393,-1.242
1772934021170.244,0.0226,-0.0517,-0.9797,2.922,-4.253,-1.269
1772934021170.244,0.0209,-0.0524,-0.9787,2.905,-4.279,-1.155
1772934021170.244,0.0196,-0.0515,-0.9778,2.73,-4.244,-1.006
1772934021170.244,0.0217,-0.0509,-0.9783,2.555,-4.331,-1.12
1772934021170.244,0.0226,-0.0513,-0.9815,2.625,-4.454,-1.417
1772934021170.244,0.0209,-0.0522,-0.9778,2.678,-4.611,-1.278
1772934021170.244,0.0232,-0.0516,-0.9808,2.651,-4.419,-1.251
1772934021170.244,0.0224,-0.054,-0.979,2.651,-4.419,-1.347
1772934021170.244,0.022,-0.0511,-0.9782,2.546,-4.471,-0.98
1772934021170.244,0.0213,-0.0515,-0.9773,2.748,-4.401,-1.041
1772934021185.5754,0.0206,-0.0533,-0.9772,2.345,-4.681,-1.137
1772934021185.5754,0.024,-0.0529,-0.9784,2.459,-4.707,-1.05
1772934021185.5754,0.026,-0.0525,-0.977,2.572,-4.401,-1.146
1772934021185.5754,0.0234,-0.0521,-0.9778,2.564,-4.716,-1.216
1772934021185.5754,0.0226,-0.0496,-0.9753,2.31,-4.646,-1.129
1772934021185.5754,0.0238,-0.0511,-0.9762,2.135,-4.375,-0.998
1772934021185.5754,0.0242,-0.051,-0.9774,2.319,-4.34,-0.98
1772934021185.5754,0.0231,-0.0535,-0.977,2.415,-4.349,-1.032
1772934021185.5754,0.0264,-0.0523,-0.9751,2.45,-4.497,-1.129
1772934021185.5754,0.0251,-0.0508,-0.9747,2.354,-4.62,-1.059
1772934021185.5754,0.0259,-0.0521,-0.9792,2.179,-4.541,-0.971
1772934021185.5754,0.0256,-0.052,-0.9773,2.188,-4.393,-0.831
1772934021200.8848,0.0238,-0.0518,-0.9768,2.126,-4.253,-0.744
1772934021200.8848,0.0203,-0.0515,-0.9798,2.371,-4.261,-0.77
1772934021200.8848,0.0251,-0.0505,-0.977,2.013,-4.235,-0.7
1772934021200.8848,0.0249,-0.0528,-0.98,2.275,-4.322,-0.525
1772934021200.8848,0.0269,-0.0504,-0.9772,2.231,-4.235,-0.726
1772934021200.8848,0.0243,-0.0516,-0.9791,2.275,-4.471,-0.744
1772934021200.8848,0.0265,-0.053,-0.9789,2.021,-4.305,-0.787
1772934021200.8848,0.0269,-0.0534,-0.9809,2.144,-4.524,-0.779
1772934021200.8848,0.0275,-0.054,-0.9772,2.214,-4.393,-0.814
1772934021200.8848,0.0265,-0.055,-0.9775,2.38,-4.419,-0.779
1772934021200.8848,0.0268,-0.0534,-0.9797,2.144,-4.305,-0.709
1772934021200.8848,0.0262,-0.0512,-0.9775,2.24,-4.209,-0.7
1772934021200.8848,0.0296,-0.0527,-0.98,2.266,-4.025,-1.067
1772934021216.889,0.0264,-0.0525,-0.9794,2.109,-4.226,-0.814
1772934021216.889,0.0264,-0.0539,-0.9783,2.24,-4.305,-0.858
1772934021216.889,0.0289,-0.0524,-0.9781,2.065,-4.349,-0.945
1772934021216.889,0.0283,-0.0524,-0.9792,2.1,-4.55,-1.041
1772934021216.889,0.0254,-0.0544,-0.9804,2.214,-4.454,-0.963
1772934021216.889,0.0271,-0.0532,-0.98,2.45,-4.401,-0.945
1772934021216.889,0.0264,-0.0523,-0.9799,2.389,-4.226,-0.963
1772934021216.889,0.0277,-0.0515,-0.9817,2.03,-4.147,-0.998
1772934021216.889,0.03,-0.0515,-0.9794,2.371,-4.183,-1.181
1772934021216.889,0.0266,-0.0508,-0.9804,2.354,-4.13,-1.242
1772934021216.889,0.0256,-0.05,-0.9809,2.38,-4.235,-1.173
1772934021216.889,0.0253,-0.0488,-0.9805,2.284,-4.393,-1.103
1772934021216.889,0.0251,-0.0504,-0.9807,2.336,-4.27,-1.12
1772934021232.527,0.0257,-0.0507,-0.979,2.424,-4.261,-1.234
1772934021232.527,0.0255,-0.0496,-0.9795,2.31,-4.209,-1.094
1772934021232.527,0.0274,-0.0508,-0.979,2.73,-4.463,-1.216
1772934021232.527,0.0254,-0.0486,-0.9816,2.748,-4.261,-1.347
1772934021232.527,0.0268,-0.0505,-0.9799,2.844,-4.41,-1.356
1772934021232.527,0.024,-0.0477,-0.9786,3.001,-4.454,-1.671
1772934021232.527,0.0262,-0.0511,-0.9787,3.019,-4.471,-1.593
1772934021232.527,0.0259,-0.0517,-0.979,3.027,-4.384,-1.636
1772934021232.527,0.0281,-0.0507,-0.9817,3.15,-4.156,-1.706
1772934021232.527,0.025,-0.0523,-0.9803,3.019,-4.191,-1.68
1772934021232.527,0.0253,-0.0527,-0.979,3.185,-4.331,-1.837
1772934021232.527,0.0253,-0.0511,-0.979,2.975,-4.218,-1.575
1772934021248.5964,0.0249,-0.0527,-0.9783,3.237,-4.401,-1.689
1772934021248.5964,0.0242,-0.0527,-0.9806,2.844,-4.515,-1.785
1772934021248.5964,0.024,-0.0526,-0.9793,3.001,-4.27,-1.671
1772934021248.5964,0.024,-0.051,-0.9803,3.264,-4.41,-1.671
1772934021248.5964,0.0226,-0.0515,-0.9818,3.43,-4.296,-1.452
1772934021248.5964,0.0265,-0.0523,-0.981,3.474,-4.112,-1.225
1772934021248.5964,0.0239,-0.0523,-0.9808,3.203,-4.454,-1.514
1772934021248.5964,0.0245,-0.052,-0.9805,3.194,-4.419,-1.689
1772934021248.5964,0.0232,-0.0525,-0.9805,3.246,-4.585,-1.61
1772934021248.5964,0.0231,-0.0528,-0.9832,3.264,-4.673,-1.768
1772934021248.5964,0.0215,-0.0515,-0.9831,3.115,-4.314,-1.601
1772934021248.5964,0.0217,-0.0525,-0.9823,3.386,-4.27,-1.619
1772934021248.5964,0.0228,-0.0517,-0.9796,3.15,-4.069,-1.802
1772934021263.8574,0.0239,-0.0519,-0.9782,3.22,-4.156,-2.074
1772934021263.8574,0.0267,-0.0517,-0.9787,3.308,-4.279,-1.724
1772934021263.8574,0.0243,-0.0523,-0.9823,3.36,-4.34,-1.768
1772934021263.8574,0.0253,-0.0529,-0.9794,3.246,-4.357,-1.794
1772934021263.8574,0.024,-0.0515,-0.9794,3.553,-4.567,-1.829
1772934021263.8574,0.0262,-0.0534,-0.9788,3.509,-4.401,-1.689
1772934021263.8574,0.0256,-0.0544,-0.9783,3.237,-4.349,-1.645
1772934021263.8574,0.0246,-0.0535,-0.9772,3.098,-4.261,-1.829
1772934021263.8574,0.0274,-0.0554,-0.9766,3.255,-4.428,-1.671
1772934021263.8574,0.0268,-0.0556,-0.9751,3.141,-4.357,-1.391
1772934021263.8574,0.0264,-0.0562,-0.975,2.975,-4.322,-1.199
1772934021263.8574,0.0253,-0.0569,-0.9747,2.817,-4.034,-1.304
1772934021263.8574,0.0262,-0.0548,-0.9755,2.765,-4.174,-1.435
1772934021279.451,0.0253,-0.0581,-0.9762,2.844,-4.174,-1.417
1772934021279.451,0.0257,-0.0586,-0.9755,2.774,-4.025,-1.041
1772934021279.451,0.0261,-0.0577,-0.9763,2.599,-4.287,-0.805
1772934021279.451,0.0267,-0.0585,-0.9747,2.424,-4.349,-0.779
1772934021279.451,0.0253,-0.0572,-0.9769,2.389,-4.174,-1.006
1772934021279.451,0.0256,-0.0569,-0.9773,2.371,-4.331,-1.041
1772934021279.451,0.0248,-0.0573,-0.9758,2.433,-4.209,-0.901
1772934021279.451,0.0243,-0.0565,-0.9772,2.319,-4.043,-0.866
1772934021279.451,0.0223,-0.0571,-0.9795,2.345,-4.253,-0.91
1772934021279.451,0.0232,-0.0557,-0.9797,2.249,-4.165,-0.954
1772934021279.451,0.0252,-0.0576,-0.979,1.942,-3.902,-1.041
1772934021279.451,0.0229,-0.0556,-0.98,2.223,-3.745,-0.7
1772934021295.3972,0.0244,-0.054,-0.9773,2.275,-4.043,-0.752
1772934021295.3972,0.0216,-0.0526,-0.9806,2.083,-4.218,-0.814
1772934021295.3972,0.0218,-0.0544,-0.9775,1.995,-4.218,-0.892
1772934021295.3972,0.0217,-0.0506,-0.9785,2.013,-4.077,-0.945
1772934021295.3972,0.0235,-0.0522,-0.9815,2.065,-4.121,-0.954
1772934021295.3972,0.0219,-0.053,-0.9818,1.978,-4.147,-1.076
1772934021295.3972,0.0215,-0.0519,-0.9824,2.047,-4.156,-1.076
1772934021295.3972,0.0213,-0.052,-0.9823,2.118,-4.034,-0.901
1772934021295.3972,0.0192,-0.0507,-0.9805,2.004,-3.938,-1.155
1772934021295.3972,0.0233,-0.0508,-0.9792,2.266,-4.121,-1.067
1772934021295.3972,0.023,-0.0507,-0.9837,2.161,-4.077,-1.129
1772934021295.3972,0.0226,-0.0544,-0.9828,2.275,-4.086,-1.111
1772934021295.3972,0.0219,-0.0521,-0.9817,2.047,-3.964,-1.33
1772934021310.5393,0.021,-0.055,-0.982,2.1,-4.139,-1.356
1772934021310.5393,0.0231,-0.0524,-0.9801,2.319,-4.095,-1.173
1772934021310.5393,0.0237,-0.0527,-0.9823,2.555,-4.226,-1.426
1772934021310.5393,0.0242,-0.052,-0.9797,2.59,-4.008,-1.339
1772934021310.5393,0.0206,-0.0526,-0.981,2.643,-4.2,-1.54
1772934021310.5393,0.0224,-0.0526,-0.979,2.345,-4.077,-1.496
1772934021310.5393,0.0213,-0.0542,-0.9772,2.284,-4.034,-1.33
1772934021310.5393,0.0239,-0.0533,-0.9789,2.572,-4.104,-1.173
1772934021310.5393,0.0235,-0.0554,-0.9797,2.494,-4.008,-1.356
1772934021310.5393,0.0232,-0.0536,-0.9784,2.616,-3.973,-1.278
1772934021310.5393,0.0229,-0.0553,-0.9791,2.66,-4.025,-1.33
1772934021310.5393,0.0256,-0.0551,-0.9758,2.564,-4.139,-1.129
1772934021326.1597,0.0234,-0.0551,-0.9782,2.459,-4.077,-1.374
1772934021326.1597,0.0267,-0.0573,-0.9777,2.441,-4.069,-1.365
1772934021326.1597,0.0265,-0.0569,-0.9768,2.406,-4.121,-1.208
1772934021326.1597,0.024,-0.055,-0.9788,2.555,-4.025,-1.181
1772934021326.1597,0.0266,-0.0548,-0.9774,2.196,-4.06,-1.059
1772934021326.1597,0.0248,-0.055,-0.9769,2.354,-4.2,-1.225
1772934021326.1597,0.0257,-0.0542,-0.9761,2.397,-3.902,-1.12
1772934021326.1597,0.0245,-0.0551,-0.9761,2.397,-3.929,-1.12
1772934021326.1597,0.0269,-0.0539,-0.9764,2.66,-3.876,-1.12
1772934021326.1597,0.0254,-0.0551,-0.978,2.502,-3.964,-1.251
1772934021326.1597,0.0275,-0.0529,-0.977,2.511,-4.086,-1.33
1772934021326.1597,0.0258,-0.0553,-0.9769,2.686,-3.929,-0.98
1772934021326.1597,0.0248,-0.0559,-0.9779,2.625,-3.797,-0.945
1772934021342.3953,0.0254,-0.0551,-0.9782,2.292,-3.649,-1.155
1772934021342.3953,0.0262,-0.0554,-0.9776,2.415,-3.745,-1.26
1772934021342.3953,0.0279,-0.0551,-0.9763,2.328,-3.728,-1.006
1772934021342.3953,0.0287,-0.0559,-0.9775,2.555,-3.509,-1.059
1772934021342.3953,0.0266,-0.055,-0.979,2.45,-3.605,-1.015
1772934021342.3953,0.0281,-0.0542,-0.9813,2.389,-3.71,-1.181
1772934021342.3953,0.0286,-0.0565,-0.9828,2.467,-3.859,-1.146
1772934021342.3953,0.0266,-0.0546,-0.9794,2.494,-3.701,-1.137
1772934021342.3953,0.0263,-0.055,-0.9797,2.511,-3.771,-1.094
1772934021342.3953,0.0271,-0.0548,-0.9817,2.485,-3.902,-1.269
1772934021342.3953,0.0267,-0.0539,-0.9806,2.678,-3.815,-1.12
1772934021342.3953,0.0266,-0.0533,-0.9812,2.66,-3.64,-1.041
1772934021342.3953,0.0275,-0.0545,-0.9825,2.397,-3.85,-0.892
1772934021358.351,0.0262,-0.0529,-0.9802,2.249,-3.797,-0.884
1772934021358.351,0.0298,-0.0515,-0.9812,2.397,-4.008,-1.12
1772934021358.351,0.0272,-0.0519,-0.9827,2.52,-3.902,-1.103
1772934021358.351,0.0257,-0.0508,-0.9802,2.607,-3.981,-1.173
1772934021358.351,0.0272,-0.049,-0.982,2.433,-4.025,-1.383
1772934021358.351,0.0274,-0.0492,-0.98,2.433,-3.841,-1.286
1772934021358.351,0.027,-0.0487,-0.9817,2.511,-4.069,-1.278
1772934021358.351,0.0262,-0.05,-0.9808,2.362,-3.894,-1.059
1772934021358.351,0.0251,-0.0511,-0.9827,2.292,-3.815,-1.129
1772934021358.351,0.0262,-0.0478,-0.9816,2.284,-3.728,-1.041
1772934021358.351,0.0282,-0.0511,-0.981,2.24,-3.981,-1.137
1772934021358.351,0.0262,-0.0506,-0.9789,2.284,-4.043,-1.137
1772934021358.351,0.0285,-0.0497,-0.9819,2.24,-4.06,-0.963
1772934021374.017,0.0271,-0.0493,-0.9831,2.292,-4.051,-1.032
1772934021374.017,0.031,-0.0498,-0.9814,2.328,-4.121,-1.164
1772934021374.017,0.0288,-0.0491,-0.9789,2.223,-3.964,-1.111
1772934021374.017,0.0262,-0.0486,-0.9811,2.284,-3.797,-1.181
1772934021374.017,0.0281,-0.0491,-0.9789,2.17,-4.034,-1.12
1772934021374.017,0.0268,-0.0479,-0.9794,2.126,-4.077,-0.963
1772934021374.017,0.0275,-0.0515,-0.9794,2.362,-4.069,-1.251
1772934021374.017,0.0283,-0.0511,-0.977,2.485,-4.27,-1.164
1772934021374.017,0.0287,-0.0525,-0.9794,2.31,-4.016,-1.12
1772934021374.017,0.0283,-0.0504,-0.9762,2.223,-4.043,-1.47
1772934021374.017,0.0288,-0.0523,-0.9798,2.415,-4.156,-1.321
1772934021374.017,0.0325,-0.0486,-0.979,2.467,-4.235,-1.496
1772934021374.017,0.0278,-0.0509,-0.9776,2.345,-4.235,-1.514
1772934021389.7732,0.0298,-0.0512,-0.9783,2.415,-4.13,-1.531
1772934021389.7732,0.0288,-0.0522,-0.9805,2.476,-4.086,-1.461
1772934021389.7732,0.028,-0.0503,-0.9789,2.888,-4.069,-1.496
1772934021389.7732,0.0283,-0.0497,-0.9783,2.73,-3.938,-1.488
1772934021389.7732,0.0292,-0.0497,-0.9787,2.634,-3.902,-1.584
1772934021389.7732,0.029,-0.0521,-0.9767,2.931,-3.973,-1.768
1772934021389.7732,0.0285,-0.0505,-0.9794,2.695,-3.841,-1.82
1772934021389.7732,0.03,-0.0515,-0.9821,2.835,-3.973,-1.724
1772934021389.7732,0.0284,-0.0517,-0.9803,2.949,-3.684,-1.837
1772934021389.7732,0.0299,-0.0538,-0.9803,2.861,-3.955,-1.829
1772934021389.7732,0.03,-0.0543,-0.9801,3.001,-4.051,-1.82
1772934021389.7732,0.0286,-0.0525,-0.9808,3.194,-4.025,-1.732
1772934021389.7732,0.0311,-0.0553,-0.9801,3.027,-3.833,-2.083
1772934021405.013,0.0281,-0.0525,-0.9819,3.098,-4.043,-1.951
1772934021405.013,0.0306,-0.0553,-0.9809,2.993,-4.034,-1.907
1772934021405.013,0.0282,-0.0525,-0.9808,3.001,-3.745,-1.558
1772934021405.013,0.0298,-0.055,-0.9799,3.001,-3.876,-1.584
1772934021405.013,0.0314,-0.0529,-0.9797,3.01,-3.824,-1.54
1772934021405.013,0.0292,-0.0558,-0.9799,3.08,-4.183,-1.426
1772934021405.013,0.0302,-0.0567,-0.9777,3.071,-3.701,-1.286
1772934021405.013,0.0306,-0.0568,-0.9784,3.089,-3.999,-1.347
1772934021405.013,0.0281,-0.0554,-0.9783,2.94,-3.868,-1.417
1772934021405.013,0.0296,-0.0552,-0.9775,2.958,-4.226,-1.19
1772934021405.013,0.0292,-0.0559,-0.9804,2.896,-4.261,-1.146
1772934021405.013,0.029,-0.0535,-0.9812,2.826,-3.981,-1.173
1772934021420.6187,0.0291,-0.0553,-0.9805,2.765,-3.946,-1.225
1772934021420.6187,0.029,-0.0523,-0.9812,2.748,-4.183,-0.963
1772934021420.6187,0.0278,-0.0527,-0.982,2.888,-4.253,-0.945
1772934021420.6187,0.0262,-0.0525,-0.9811,2.896,-4.121,-0.989
1772934021420.6187,0.0266,-0.0508,-0.9833,2.599,-4.095,-1.076
1772934021420.6187,0.0289,-0.0509,-0.9826,2.73,-4.121,-0.971
1772934021420.6187,0.03,-0.0524,-0.9836,2.695,-4.139,-0.866
1772934021420.6187,0.0273,-0.0495,-0.9833,2.564,-4.261,-1.146
1772934021420.6187,0.0307,-0.0493,-0.9816,2.467,-4.419,-1.032
1772934021420.6187,0.0273,-0.0498,-0.9827,2.599,-4.357,-1.304
1772934021420.6187,0.0281,-0.0476,-0.9823,2.695,-4.279,-1.155
1772934021420.6187,0.0271,-0.0461,-0.9803,2.572,-4.253,-1.26
1772934021420.6187,0.0282,-0.0493,-0.9804,2.651,-4.112,-1.05
1772934021435.6836,0.0284,-0.0495,-0.9811,2.791,-4.393,-1.181
1772934021435.6836,0.0273,-0.0488,-0.9813,2.783,-4.436,-1.339
1772934021435.6836,0.029,-0.0487,-0.9782,2.922,-4.287,-1.181
1772934021435.6836,0.0302,-0.0481,-0.98,2.879,-4.305,-1.417
1772934021435.6836,0.0282,-0.0496,-0.9783,2.809,-4.165,-1.304
1772934021435.6836,0.031,-0.0497,-0.9808,2.94,-4.095,-1.356
1772934021435.6836,0.0321,-0.0492,-0.9773,3.098,-4.095,-1.216
1772934021435.6836,0.0319,-0.0519,-0.977,3.176,-4.13,-1.461
1772934021435.6836,0.0322,-0.0532,-0.977,3.22,-4.506,-1.383
1772934021435.6836,0.0331,-0.0522,-0.9762,3.15,-4.384,-1.26
1772934021435.6836,0.0332,-0.0536,-0.9777,2.905,-4.2,-1.391
1772934021435.6836,0.0323,-0.0536,-0.978,2.87,-3.946,-1.321
1772934021451.4075,0.0316,-0.0525,-0.9744,2.958,-4.235,-1.312
1772934021451.4075,0.0335,-0.0542,-0.979,2.765,-4.147,-1.304
1772934021451.4075,0.0311,-0.0539,-0.9792,3.001,-3.85,-1.103
1772934021451.4075,0.0317,-0.0527,-0.9788,2.695,-4.183,-1.295
1772934021451.4075,0.0315,-0.0543,-0.977,2.844,-4.296,-1.129
1772934021451.4075,0.0309,-0.0555,-0.979,2.748,-4.147,-1.199
1772934021451.4075,0.034,-0.0545,-0.9781,2.59,-4.305,-1.085
1772934021451.4075,0.0323,-0.0533,-0.9753,2.59,-3.938,-1.006
1772934021451.4075,0.0311,-0.0544,-0.9772,2.511,-4.069,-1.024
1772934021451.4075,0.0326,-0.053,-0.9754,2.546,-4.095,-1.137
1772934021451.4075,0.0326,-0.0506,-0.976,2.634,-4.226,-1.216
1772934021451.4075,0.0316,-0.0519,-0.9762,2.607,-4.165,-1.129
1772934021451.4075,0.0323,-0.0534,-0.9765,2.564,-4.218,-1.076
1772934021466.7795,0.0331,-0.0527,-0.9776,2.59,-3.981,-0.831
1772934021466.7795,0.0314,-0.0531,-0.9791,2.336,-4.314,-0.954
1772934021466.7795,0.0326,-0.0522,-0.9795,2.511,-4.27,-1.111
1772934021466.7795,0.0307,-0.0511,-0.9756,2.467,-4.2,-0.945
1772934021466.7795,0.0318,-0.0513,-0.9774,2.529,-4.209,-0.989
1772934021466.7795,0.0305,-0.052,-0.977,2.572,-3.929,-0.927
1772934021466.7795,0.0303,-0.0531,-0.9785,2.441,-4.034,-1.155
1772934021466.7795,0.0314,-0.0517,-0.9781,2.354,-4.226,-1.225
1772934021466.7795,0.0285,-0.0498,-0.9789,2.196,-4.06,-1.47
1772934021466.7795,0.0306,-0.05,-0.9792,2.389,-4.253,-1.216
1772934021466.7795,0.0323,-0.0492,-0.9787,2.406,-4.191,-1.33
1772934021466.7795,0.0298,-0.0498,-0.9808,2.284,-4.218,-1.435
1772934021481.9753,0.0285,-0.0483,-0.9795,2.179,-4.235,-1.47
1772934021481.9753,0.0285,-0.0512,-0.9795,2.161,-4.025,-1.54
1772934021481.9753,0.0288,-0.0505,-0.9797,2.362,-3.999,-1.488
1772934021481.9753,0.0306,-0.051,-0.9822,2.441,-3.911,-1.452
1772934021481.9753,0.0293,-0.0506,-0.983,2.389,-3.92,-1.173
1772934021481.9753,0.0296,-0.0508,-0.982,2.354,-3.902,-1.435
1772934021481.9753,0.0302,-0.0504,-0.9826,2.362,-4.077,-1.347
1772934021481.9753,0.0298,-0.0505,-0.9805,2.45,-4.436,-1.199
1772934021481.9753,0.0285,-0.0514,-0.9834,2.476,-4.139,-1.278
1772934021481.9753,0.0283,-0.053,-0.9809,2.467,-4.2,-1.452
1772934021481.9753,0.0271,-0.0506,-0.9813,2.538,-4.471,-1.461
1772934021481.9753,0.027,-0.0506,-0.9834,2.73,-4.296,-1.54
1772934021497.2063,0.0291,-0.0513,-0.9834,2.607,-4.112,-1.409
1772934021497.2063,0.0291,-0.0515,-0.9806,2.966,-4.331,-1.724
1772934021497.2063,0.027,-0.0532,-0.9807,3.089,-4.349,-1.47
1772934021497.2063,0.029,-0.0518,-0.9813,2.949,-4.471,-1.593
1772934021497.2063,0.0285,-0.0545,-0.983,2.94,-4.165,-1.654
1772934021497.2063,0.0317,-0.0529,-0.9819,2.844,-4.322,-1.698
1772934021497.2063,0.0306,-0.0556,-0.9817,2.984,-4.357,-1.505
1772934021497.2063,0.0308,-0.0547,-0.9829,2.879,-4.384,-1.61
1772934021497.2063,0.0301,-0.0539,-0.9806,2.826,-4.41,-1.601
1772934021497.2063,0.0298,-0.0534,-0.9814,2.826,-4.436,-1.321
1772934021497.2063,0.03,-0.0528,-0.9848,2.966,-4.489,-1.496
1772934021497.2063,0.0306,-0.0538,-0.9832,2.844,-4.384,-1.47
1772934021497.2063,0.0282,-0.0531,-0.9827,2.905,-4.821,-1.251
1772934021513.023,0.03,-0.0525,-0.9822,2.888,-4.463,-1.181
1772934021513.023,0.029,-0.0525,-0.9826,2.817,-4.366,-1.164
1772934021513.023,0.029,-0.051,-0.9828,2.678,-4.445,-1.12
1772934021513.023,0.0289,-0.0496,-0.9825,2.721,-4.751,-1.067
1772934021513.023,0.0291,-0.0506,-0.9811,2.861,-4.585,-1.269
1772934021513.023,0.029,-0.0477,-0.9811,2.669,-4.865,-1.199
1772934021513.023,0.0295,-0.0492,-0.979,2.66,-4.812,-1.173
1772934021513.023,0.029,-0.0506,-0.9812,2.634,-4.926,-1.234
1772934021513.023,0.0314,-0.0529,-0.9809,2.704,-4.856,-0.954
1772934021513.023,0.03,-0.0506,-0.9794,2.774,-4.786,-0.954
1772934021513.023,0.0325,-0.0533,-0.9803,2.599,-4.821,-1.173
1772934021513.023,0.0308,-0.0526,-0.9786,2.712,-4.734,-1.295
1772934021513.023,0.0314,-0.055,-0.9773,2.739,-4.603,-1.295
1772934021529.2942,0.0328,-0.0544,-0.9775,2.59,-4.856,-1.111
1772934021529.2942,0.0302,-0.056,-0.9797,2.651,-4.611,-1.19
1772934021529.2942,0.0321,-0.0558,-0.9766,2.975,-4.646,-1.155
1772934021529.2942,0.031,-0.0534,-0.9767,2.809,-4.541,-1.199
1772934021529.2942,0.0321,-0.0526,-0.9768,2.59,-4.629,-1.076
1772934021529.2942,0.0332,-0.0525,-0.9771,2.564,-4.541,-1.304
1772934021529.2942,0.0322,-0.0522,-0.9763,2.52,-4.515,-1.155
1772934021529.2942,0.0339,-0.0515,-0.9772,2.459,-4.532,-1.269
1772934021529.2942,0.0346,-0.0529,-0.9753,2.292,-4.576,-1.181
1772934021529.2942,0.0334,-0.0522,-0.9758,2.467,-4.673,-0.989
1772934021529.2942,0.0331,-0.0519,-0.9749,2.712,-4.585,-1.312
1772934021529.2942,0.0319,-0.0536,-0.9766,2.52,-4.384,-1.146
1772934021529.2942,0.0314,-0.0528,-0.9758,2.607,-4.191,-1.304
1772934021545.0542,0.0315,-0.0528,-0.9792,2.581,-4.244,-1.234
1772934021545.0542,0.0327,-0.0539,-0.9776,2.345,-4.559,-1.304
1772934021545.0542,0.0313,-0.0529,-0.9785,2.284,-4.428,-1.278
1772934021545.0542,0.0314,-0.053,-0.9753,2.266,-4.489,-1.33
1772934021545.0542,0.0332,-0.0497,-0.9792,2.214,-4.48,-1.094
1772934021545.0542,0.0295,-0.0525,-0.98,2.118,-4.497,-1.103
1772934021545.0542,0.0334,-0.0512,-0.9774,2.179,-4.445,-1.015
1772934021545.0542,0.0311,-0.0492,-0.9777,2.231,-4.655,-1.041
1772934021545.0542,0.0328,-0.048,-0.9782,2.266,-4.559,-1.076
1772934021545.0542,0.0315,-0.0495,-0.9802,2.336,-4.41,-1.103
1772934021545.0542,0.0312,-0.0484,-0.976,1.978,-4.515,-1.19
1772934021545.0542,0.0315,-0.0485,-0.9783,2.126,-4.454,-1.024
1772934021560.9436,0.032,-0.0464,-0.9783,2.205,-4.366,-1.032
1772934021560.9436,0.0331,-0.0484,-0.9809,2.292,-4.638,-1.129
1772934021560.9436,0.0307,-0.0476,-0.98,1.837,-4.349,-1.19
1772934021560.9436,0.0315,-0.0476,-0.9798,1.942,-4.375,-1.137
1772934021560.9436,0.0285,-0.0461,-0.9769,2.047,-4.428,-1.146
1772934021560.9436,0.03,-0.0461,-0.9792,1.925,-4.62,-1.173
1772934021560.9436,0.0321,-0.0468,-0.9785,1.951,-4.777,-1.041
1772934021560.9436,0.0317,-0.0479,-0.9795,2.021,-4.681,-1.19
1772934021560.9436,0.0309,-0.0494,-0.9795,2.091,-4.603,-1.181
1772934021560.9436,0.0291,-0.05,-0.9798,1.951,-4.349,-1.164
1772934021560.9436,0.0318,-0.0495,-0.9803,1.969,-4.209,-1.391
1772934021560.9436,0.0315,-0.0522,-0.9792,2.056,-4.445,-1.383
1772934021560.9436,0.0337,-0.0511,-0.9781,2.135,-4.445,-1.312
1772934021577.1675,0.0318,-0.0516,-0.9792,2.205,-4.48,-1.444
1772934021577.1675,0.03,-0.0533,-0.9789,2.284,-4.611,-1.356
1772934021577.1675,0.0311,-0.0515,-0.9796,2.17,-4.515,-1.137
1772934021577.1675,0.0301,-0.0532,-0.9801,1.934,-4.603,-1.269
1772934021577.1675,0.0303,-0.052,-0.9828,2.109,-4.786,-1.199
1772934021577.1675,0.0307,-0.0506,-0.9831,2.091,-4.497,-1.164
1772934021577.1675,0.0312,-0.0523,-0.981,1.96,-4.603,-1.225
1772934021577.1675,0.0288,-0.0504,-0.9823,2.047,-4.532,-1.242
1772934021577.1675,0.0291,-0.0521,-0.9833,2.196,-4.603,-1.199
1772934021577.1675,0.0283,-0.0511,-0.9847,2.179,-4.681,-1.321
1772934021577.1675,0.0284,-0.0528,-0.9873,2.249,-4.742,-1.347
1772934021577.1675,0.0284,-0.0505,-0.9889,2.415,-4.856,-1.286
1772934021577.1675,0.0264,-0.0514,-0.987,2.494,-4.848,-1.278
1772934021577.1675,0.0257,-0.0518,-0.9903,2.651,-4.891,-1.444
1772934021592.0835,0.0304,-0.0496,-0.9892,2.896,-5.093,-1.593
1772934021592.0835,0.0262,-0.0493,-0.9907,3.071,-5.119,-1.636
1772934021592.0835,0.0273,-0.0501,-0.9908,3.027,-4.848,-1.347
1772934021592.0835,0.0279,-0.0522,-0.9893,3.334,-4.883,-1.339
1772934021592.0835,0.0279,-0.0498,-0.9909,3.465,-5.093,-1.715
1772934021592.0835,0.0242,-0.0498,-0.992,3.728,-5.014,-1.802
1772934021592.0835,0.0286,-0.0498,-0.9934,3.675,-5.022,-1.724
1772934021592.0835,0.0281,-0.0497,-0.992,3.876,-5.136,-1.61
1772934021592.0835,0.0272,-0.0473,-0.9922,3.964,-5.303,-1.873
1772934021592.0835,0.0274,-0.0465,-0.9919,3.99,-5.46,-1.759
1772934021592.0835,0.0284,-0.047,-0.9932,4.331,-5.521,-1.654
1772934021592.0835,0.0304,-0.0485,-0.9919,4.156,-5.556,-1.829
1772934021607.3545,0.0286,-0.0486,-0.9918,4.34,-5.74,-1.899
1772934021607.3545,0.0318,-0.0505,-0.9902,4.506,-5.758,-1.802
1772934021607.3545,0.0302,-0.0478,-0.9873,4.585,-5.897,-1.916
1772934021607.3545,0.0309,-0.0497,-0.988,4.34,-5.976,-1.986
1772934021607.3545,0.0317,-0.0504,-0.9873,4.191,-5.81,-1.899
1772934021607.3545,0.0339,-0.0513,-0.9846,4.366,-5.845,-1.864
1772934021607.3545,0.0348,-0.0504,-0.9838,4.322,-5.897,-1.811
1772934021607.3545,0.0368,-0.0509,-0.9804,4.393,-5.889,-1.846
1772934021607.3545,0.0379,-0.0524,-0.9787,4.077,-5.862,-1.864
1772934021607.3545,0.0379,-0.0528,-0.9747,4.06,-5.862,-2.004
1772934021607.3545,0.0386,-0.0524,-0.9761,3.815,-5.959,-1.715
1772934021607.3545,0.0403,-0.0525,-0.9725,3.955,-5.95,-1.645
1772934021622.944,0.0411,-0.0553,-0.972,3.824,-6.169,-1.732
1772934021622.944,0.0398,-0.0554,-0.9698,3.596,-5.994,-1.802
1772934021622.944,0.0406,-0.0553,-0.9676,3.509,-5.889,-1.768
1772934021622.944,0.0426,-0.0544,-0.9659,3.089,-5.95,-1.715
1772934021622.944,0.0432,-0.0558,-0.965,2.853,-5.81,-1.627
1772934021622.944,0.0437,-0.0529,-0.9637,2.686,-5.652,-1.61
1772934021622.944,0.0432,-0.0541,-0.9642,2.38,-5.548,-1.531
1772934021622.944,0.0434,-0.0531,-0.965,2.004,-5.399,-1.496
1772934021622.944,0.0435,-0.0514,-0.9628,1.75,-5.197,-1.251
1772934021622.944,0.0393,-0.0499,-0.9639,1.645,-5.162,-1.347
1772934021622.944,0.0415,-0.0493,-0.965,1.584,-5.372,-1.383
1772934021622.944,0.0408,-0.0486,-0.9623,1.461,-4.996,-1.164
1772934021622.944,0.0412,-0.0434,-0.9645,1.146,-4.839,-1.146
1772934021638.8357,0.039,-0.0451,-0.964,1.181,-4.769,-1.137
1772934021638.8357,0.0375,-0.0412,-0.9695,1.33,-4.716,-1.225
1772934021638.8357,0.0368,-0.0424,-0.9684,1.129,-4.515,-1.26
1772934021638.8357,0.0451,-0.0422,-0.9709,1.242,-4.34,-1.435
1772934021638.8357,0.0432,-0.0409,-0.9732,1.339,-4.436,-1.356
1772934021638.8357,0.04,-0.0365,-0.9734,1.409,-4.13,-1.645
1772934021638.8357,0.0346,-0.0369,-0.9751,1.409,-3.859,-1.873
1772934021638.8357,0.0317,-0.0376,-0.977,1.452,-3.973,-1.873
1772934021638.8357,0.0309,-0.0422,-0.9785,1.794,-4.331,-1.96
1772934021638.8357,0.029,-0.0415,-0.9827,1.689,-3.99,-1.811
1772934021638.8357,0.0314,-0.0437,-0.9826,2.275,-4.077,-2.039
1772934021638.8357,0.0308,-0.0412,-0.9855,2.634,-3.789,-2.275
1772934021638.8357,0.0307,-0.0423,-0.9852,2.564,-3.745,-2.362
1772934021654.8743,0.0306,-0.0437,-0.9851,2.712,-3.964,-2.415
1772934021654.8743,0.0287,-0.0459,-0.9869,3.027,-4.121,-2.406
1772934021654.8743,0.0321,-0.05,-0.9836,3.098,-4.357,-2.397
1772934021654.8743,0.0325,-0.0522,-0.9875,3.115,-4.112,-2.45
1772934021654.8743,0.0324,-0.0515,-0.9836,3.22,-4.384,-2.511
1772934021654.8743,0.0317,-0.0536,-0.9845,3.141,-4.401,-2.555
1772934021654.8743,0.033,-0.0551,-0.9823,2.94,-4.366,-2.362
1772934021654.8743,0.0351,-0.0544,-0.9806,3.071,-4.69,-2.24
1772934021654.8743,0.0337,-0.0545,-0.9816,3.027,-4.681,-2.205
1772934021654.8743,0.0339,-0.0561,-0.9782,2.879,-4.664,-2.284
1772934021654.8743,0.0357,-0.057,-0.9767,2.853,-4.41,-2.118
1772934021654.8743,0.0332,-0.0585,-0.9783,2.704,-4.541,-1.986
1772934021654.8743,0.0322,-0.0568,-0.9765,2.853,-4.742,-2.091
1772934021670.2026,0.0315,-0.0543,-0.9739,2.529,-4.611,-2.152
1772934021670.2026,0.03,-0.055,-0.9745,2.651,-4.646,-2.03
1772934021670.2026,0.0306,-0.0566,-0.9734,2.546,-4.62,-1.986
1772934021670.2026,0.0314,-0.055,-0.9722,2.538,-4.664,-1.925
1772934021670.2026,0.0287,-0.0561,-0.9724,2.511,-4.742,-1.706
1772934021670.2026,0.0313,-0.0577,-0.9775,2.695,-4.777,-1.785
1772934021670.2026,0.0318,-0.0562,-0.9754,2.643,-4.594,-1.566
1772934021670.2026,0.032,-0.0539,-0.9798,2.853,-4.393,-1.61
1772934021670.2026,0.0334,-0.0528,-0.9796,2.888,-4.428,-1.627
1772934021670.2026,0.0367,-0.0562,-0.9883,2.94,-4.541,-1.741
1772934021670.2026,0.0389,-0.062,-0.987,2.879,-4.567,-1.671
1772934021670.2026,0.0384,-0.0536,-0.988,2.853,-4.611,-1.479
1772934021686.0671,0.0351,-0.0489,-0.9937,2.511,-4.952,-1.54
1772934021686.0671,0.0296,-0.0438,-0.993,2.152,-5.162,-1.654
1772934021686.0671,0.0254,-0.0398,-0.993,1.995,-5.495,-1.855
1772934021686.0671,0.0237,-0.0341,-0.9924,1.916,-5.311,-1.969
1772934021686.0671,0.0253,-0.0325,-0.9981,2.362,-5.67,-2.039
1772934021686.0671,0.0253,-0.0295,-1.0047,2.511,-5.723,-2.266
1772934021686.0671,0.024,-0.0306,-1.0078,2.712,-6.186,-2.433
1772934021686.0671,0.0269,-0.0284,-1.0152,2.958,-6.729,-2.739
1772934021686.0671,0.0289,-0.0267,-1.0189,2.809,-6.939,-2.905
1772934021686.0671,0.0296,-0.0273,-1.0264,3.019,-7.131,-2.975
1772934021686.0671,0.0281,-0.0303,-1.0319,3.509,-8.094,-3.22
1772934021686.0671,0.0268,-0.0328,-1.0333,3.771,-8.505,-3.22
1772934021686.0671,0.0231,-0.0348,-1.0383,3.719,-8.846,-3.413
1772934021701.7615,0.0215,-0.0378,-1.041,3.981,-9.152,-3.447
1772934021701.7615,0.0193,-0.0407,-1.0436,3.728,-9.756,-3.728
1772934021701.7615,0.0196,-0.0461,-1.0434,3.754,-10.22,-3.833
1772934021701.7615,0.0185,-0.0511,-1.0424,3.456,-10.614,-3.876
1772934021701.7615,0.019,-0.0564,-1.0404,3.22,-10.841,-4.016
1772934021701.7615,0.022,-0.0617,-1.0365,2.695,-11.252,-4.121
1772934021701.7615,0.0195,-0.0668,-1.0341,2.257,-11.707,-4.025
1772934021701.7615,0.0212,-0.0731,-1.0285,1.715,-11.777,-3.78
1772934021701.7615,0.0253,-0.0772,-1.0243,1.067,-12.101,-3.92
1772934021701.7615,0.0271,-0.0792,-1.0207,0.464,-12.25,-3.902
1772934021701.7615,0.0316,-0.0823,-1.0171,-0.254,-12.285,-3.64
1772934021701.7615,0.0329,-0.0847,-1.0138,-0.892,-12.049,-3.509
1772934021701.7615,0.0359,-0.0863,-1.0074,-1.575,-11.926,-3.351
1772934021717.3528,0.0356,-0.0861,-1.0055,-2.004,-12.206,-3.071
1772934021717.3528,0.039,-0.0833,-1.005,-2.581,-12.005,-3.01
1772934021717.3528,0.0381,-0.0844,-1.0014,-2.791,-11.777,-2.599
1772934021717.3528,0.0396,-0.0806,-0.9973,-3.22,-11.559,-2.275
1772934021717.3528,0.0428,-0.0807,-0.9958,-3.623,-11.384,-2.03
1772934021717.3528,0.0444,-0.0763,-0.9931,-3.623,-11.41,-1.785
1772934021717.3528,0.0449,-0.0771,-0.9884,-3.833,-11.156,-1.689
1772934021717.3528,0.0459,-0.0755,-0.9837,-3.789,-11.401,-1.584
1772934021717.3528,0.0501,-0.0767,-0.9816,-3.754,-11.331,-1.146
1772934021717.3528,0.0492,-0.0703,-0.9817,-3.666,-10.806,-0.971
1772934021717.3528,0.0486,-0.0675,-0.9783,-3.85,-11.095,-1.076
1772934021717.3528,0.0448,-0.0622,-0.9637,-3.78,-10.964,-0.77
1772934021732.4812,0.0395,-0.0575,-0.9545,-3.728,-10.623,-0.752
1772934021732.4812,0.0415,-0.0569,-0.9477,-3.447,-10.255,-0.744
1772934021732.4812,0.0427,-0.0561,-0.9421,-2.896,-10.08,-0.726
1772934021732.4812,0.0403,-0.054,-0.9365,-2.625,-9.669,-0.901
1772934021732.4812,0.0436,-0.0548,-0.9368,-1.916,-9.012,-0.516
1772934021732.4812,0.0455,-0.0511,-0.9299,-1.584,-8.601,-0.367
1772934021732.4812,0.049,-0.0474,-0.9261,-1.146,-8.365,-0.359
1772934021732.4812,0.0476,-0.0501,-0.9224,-0.779,-7.639,-0.385
1772934021732.4812,0.0512,-0.047,-0.9211,-0.149,-6.912,-0.219
1772934021732.4812,0.0531,-0.048,-0.9172,0.297,-6.51,-0.42
1772934021732.4812,0.0526,-0.0477,-0.916,0.674,-5.985,-0.385
1772934021732.4812,0.0528,-0.0499,-0.9127,0.936,-5.285,-0.385
1772934021747.9297,0.0515,-0.0526,-0.9109,1.225,-4.594,-0.726
1772934021747.9297,0.0514,-0.0526,-0.9123,1.47,-4.314,-0.656
1772934021747.9297,0.0501,-0.0531,-0.9124,1.732,-3.833,-0.621
1772934021747.9297,0.0473,-0.0544,-0.917,1.732,-3.605,-0.682
1772934021747.9297,0.0454,-0.0531,-0.9202,1.881,-3.255,-0.831
1772934021747.9297,0.0439,-0.0511,-0.9196,1.978,-2.415,-0.674
1772934021747.9297,0.0423,-0.0514,-0.9222,2.345,-2.284,-0.77
1772934021747.9297,0.0396,-0.0514,-0.9242,2.152,-1.837,-0.665
1772934021747.9297,0.0371,-0.0504,-0.931,1.837,-1.846,-0.63
1772934021747.9297,0.0374,-0.0477,-0.933,2.083,-1.776,-0.639
1772934021747.9297,0.0326,-0.047,-0.9373,2.109,-1.593,-1.032
1772934021747.9297,0.0306,-0.0469,-0.9434,2.144,-1.347,-1.024
1772934021747.9297,0.0274,-0.047,-0.9479,1.969,-1.365,-0.971
1772934021764.025,0.0263,-0.046,-0.95,2.021,-1.024,-0.945
1772934021764.025,0.0236,-0.0452,-0.9579,2.056,-1.173,-1.269
1772934021764.025,0.021,-0.0443,-0.9607,2.091,-1.505,-1.531
1772934021764.025,0.0182,-0.0427,-0.9645,2.109,-1.365,-1.444
1772934021764.025,0.016,-0.0435,-0.9689,2.415,-1.461,-1.295
1772934021764.025,0.0166,-0.0451,-0.9742,2.135,-1.566,-1.365
1772934021764.025,0.0137,-0.0427,-0.9794,1.934,-1.505,-1.269
1772934021764.025,0.0102,-0.0421,-0.9791,1.785,-1.706,-1.137
1772934021764.025,0.0108,-0.0445,-0.9815,1.68,-1.846,-1.356
1772934021764.025,0.0113,-0.0463,-0.9852,1.636,-1.899,-1.225
1772934021764.025,0.0121,-0.0458,-0.9886,1.505,-2.476,-1.383
1772934021764.025,0.0098,-0.0453,-0.9925,1.601,-2.45,-1.225
1772934021764.025,0.0084,-0.0472,-0.9932,1.47,-2.651,-1.286
1772934021779.2961,0.0065,-0.0459,-0.9938,1.286,-2.931,-1.155
1772934021779.2961,0.0062,-0.0431,-0.9961,1.094,-3.01,-1.19
1772934021779.2961,0.0085,-0.0418,-0.9961,1.129,-3.491,-1.05
1772934021779.2961,0.0073,-0.0395,-0.9959,0.796,-3.579,-0.927
1772934021779.2961,0.0046,-0.0422,-0.9954,0.735,-3.719,-1.137
1772934021779.2961,0.005,-0.0398,-0.9961,0.761,-4.008,-1.015
1772934021779.2961,0.0065,-0.0412,-0.9974,0.665,-4.112,-0.927
1772934021779.2961,0.009,-0.0382,-0.996,0.604,-4.209,-0.752
1772934021779.2961,0.0091,-0.0376,-0.997,0.656,-4.287,-0.796
1772934021779.2961,0.0083,-0.0377,-0.9941,0.56,-4.497,-0.849
1772934021779.2961,0.0085,-0.0393,-0.9934,0.534,-4.716,-0.936
1772934021779.2961,0.0095,-0.037,-0.9933,0.604,-4.795,-0.963
1772934021794.7944,0.0116,-0.0406,-0.992,0.665,-4.909,-0.866
1772934021794.7944,0.0113,-0.0379,-0.9923,0.665,-4.821,-0.936
1772934021794.7944,0.0101,-0.0352,-0.9871,0.621,-5.084,-0.884
1772934021794.7944,0.0132,-0.0372,-0.9854,0.647,-5.241,-0.998
1772934021794.7944,0.0142,-0.0374,-0.9828,0.84,-5.224,-1.199
1772934021794.7944,0.0149,-0.0379,-0.9833,0.665,-5.075,-1.076
1772934021794.7944,0.0155,-0.0369,-0.9841,0.823,-5.084,-0.971
1772934021794.7944,0.0176,-0.0364,-0.9801,0.989,-5.232,-0.989
1772934021794.7944,0.0198,-0.0369,-0.9751,1.19,-5.609,-0.91
1772934021794.7944,0.0188,-0.0365,-0.9776,1.164,-5.18,-0.945
1772934021794.7944,0.0195,-0.0339,-0.975,1.234,-5.11,-0.989
1772934021794.7944,0.0193,-0.0343,-0.9717,1.269,-5.075,-1.05
1772934021794.7944,0.0216,-0.0351,-0.9742,1.435,-5.11,-1.19
1772934021810.313,0.0236,-0.0337,-0.9709,1.312,-5.084,-1.015
1772934021810.313,0.0248,-0.035,-0.9695,1.278,-4.848,-1.129
1772934021810.313,0.0236,-0.0356,-0.9683,1.409,-4.699,-1.33
1772934021810.313,0.0253,-0.036,-0.9713,1.558,-4.681,-1.724
1772934021810.313,0.0264,-0.0359,-0.9676,1.619,-4.725,-1.234
1772934021810.313,0.0276,-0.0365,-0.9673,1.584,-4.296,-1.619
1772934021810.313,0.0328,-0.0373,-0.9682,2.021,-4.366,-1.61
1772934021810.313,0.0296,-0.0392,-0.9688,1.899,-4.445,-1.636
1772934021810.313,0.0316,-0.0396,-0.9688,2.013,-4.349,-1.811
1772934021810.313,0.0328,-0.0407,-0.9673,2.118,-3.99,-1.706
1772934021810.313,0.0334,-0.0388,-0.9639,2.083,-3.833,-1.558
1772934021810.313,0.032,-0.0412,-0.9652,2.231,-3.518,-1.549
1772934021810.313,0.0353,-0.0437,-0.9684,2.354,-3.719,-1.706
1772934021825.986,0.0359,-0.045,-0.9715,2.546,-3.815,-1.75
1772934021825.986,0.037,-0.0453,-0.9678,2.459,-3.43,-1.741
1772934021825.986,0.0353,-0.0455,-0.9711,2.415,-3.456,-1.514
1772934021825.986,0.0356,-0.0435,-0.9706,2.275,-3.57,-1.347
1772934021825.986,0.0391,-0.0398,-0.9694,2.45,-3.518,-1.374
1772934021825.986,0.0375,-0.0372,-0.9693,2.24,-3.351,-1.295
1772934021825.986,0.0412,-0.0422,-0.9706,2.118,-3.421,-1.479
1772934021825.986,0.045,-0.0619,-0.9738,2.004,-3.351,-1.19
1772934021825.986,0.0618,-0.1079,-0.983,2.161,-3.544,-1.076
1772934021825.986,0.0598,-0.0749,-0.9753,2.476,-3.159,-0.656
1772934021825.986,0.0464,-0.0361,-0.9649,2.362,-3.176,-0.21
1772934021825.986,0.0356,-0.0117,-0.9576,2.205,-3.229,-0.009
1772934021841.1555,0.0341,-0.0061,-0.9598,1.837,-2.634,-0.158
1772934021841.1555,0.0304,-0.009,-0.9654,1.479,-2.783,-0.42
1772934021841.1555,0.0333,-0.0157,-0.9699,1.4,-2.809,-1.085
1772934021841.1555,0.0387,-0.0212,-0.9742,1.155,-2.826,-1.417
1772934021841.1555,0.0412,-0.0282,-0.9803,1.024,-2.87,-1.549
1772934021841.1555,0.0431,-0.0337,-0.9785,0.945,-3.045,-1.759
1772934021841.1555,0.0466,-0.0413,-0.9769,1.094,-3.246,-1.829
1772934021841.1555,0.0462,-0.044,-0.9772,1.365,-3.115,-1.785
1772934021841.1555,0.0457,-0.0441,-0.9771,1.531,-2.966,-1.584
1772934021841.1555,0.0437,-0.0422,-0.9759,1.671,-2.975,-1.374
1772934021841.1555,0.0415,-0.0381,-0.9767,1.846,-3.185,-1.47
1772934021841.1555,0.0413,-0.0381,-0.9795,1.951,-2.817,-1.278
1772934021841.1555,0.0419,-0.0376,-0.9802,2.24,-2.651,-1.111
1772934021857.0776,0.039,-0.041,-0.9789,2.362,-2.809,-1.304
1772934021857.0776,0.0429,-0.0398,-0.9814,2.249,-2.765,-1.426
1772934021857.0776,0.0427,-0.0434,-0.9807,2.24,-2.52,-1.286
1772934021857.0776,0.0431,-0.0462,-0.9809,2.328,-2.861,-1.488
1772934021857.0776,0.0459,-0.0464,-0.9789,2.301,-2.905,-1.356
1772934021857.0776,0.0408,-0.0492,-0.9812,2.03,-2.87,-1.356
1772934021857.0776,0.0423,-0.0492,-0.9789,1.986,-2.783,-1.426
1772934021857.0776,0.0398,-0.0447,-0.9813,2.021,-2.651,-1.312
1772934021857.0776,0.0393,-0.0473,-0.9792,1.942,-2.59,-1.286
1772934021857.0776,0.0396,-0.0468,-0.9808,2.056,-2.783,-1.085
1772934021857.0776,0.0389,-0.0448,-0.9781,1.916,-2.678,-1.181
1772934021857.0776,0.0367,-0.0459,-0.9783,2.126,-2.625,-1.251
1772934021857.0776,0.0366,-0.0451,-0.9767,2.118,-2.52,-1.041
1772934021873.2263,0.0379,-0.0431,-0.9781,1.986,-2.678,-1.059
1772934021873.2263,0.0362,-0.0449,-0.9787,2.021,-2.791,-1.181
1772934021873.2263,0.0398,-0.0465,-0.98,2.284,-2.66,-1.067
1772934021873.2263,0.0404,-0.0464,-0.9785,2.021,-2.669,-0.892
1772934021873.2263,0.0409,-0.0474,-0.9785,2.074,-2.651,-1.12
1772934021873.2263,0.0412,-0.0456,-0.9778,2.301,-2.765,-0.91
1772934021873.2263,0.04,-0.0484,-0.982,2.196,-2.844,-0.604
1772934021873.2263,0.0404,-0.048,-0.9778,2.205,-2.555,-0.639
1772934021873.2263,0.0398,-0.0462,-0.9763,2.24,-2.485,-0.56
1772934021873.2263,0.0412,-0.0506,-0.9749,2.266,-2.879,-0.595
1772934021873.2263,0.0398,-0.0462,-0.9758,2.196,-2.809,-0.735
1772934021873.2263,0.0378,-0.0479,-0.9755,2.214,-2.861,-0.586
1772934021873.2263,0.0376,-0.0447,-0.9751,2.345,-2.931,-0.569
1772934021888.9033,0.0377,-0.0453,-0.9759,2.205,-2.993,-0.787
1772934021888.9033,0.0367,-0.0442,-0.9769,2.328,-3.089,-1.032
1772934021888.9033,0.0367,-0.0451,-0.979,2.292,-2.879,-1.094
1772934021888.9033,0.035,-0.0454,-0.9781,2.529,-2.817,-0.901
1772934021888.9033,0.0346,-0.0474,-0.9781,2.669,-3.019,-1.146
1772934021888.9033,0.0369,-0.0462,-0.9789,2.485,-3.334,-0.927
1772934021888.9033,0.0354,-0.0461,-0.9796,2.45,-3.098,-1.05
1772934021888.9033,0.0342,-0.0479,-0.9816,2.555,-3.08,-1.146
1772934021888.9033,0.0322,-0.0464,-0.981,2.538,-2.922,-1.181
1772934021888.9033,0.0321,-0.0461,-0.9787,2.625,-2.896,-1.103
1772934021888.9033,0.0344,-0.0456,-0.9784,2.433,-3.001,-1.242
1772934021888.9033,0.0327,-0.0459,-0.9783,2.301,-3.071,-1.181
1772934021904.6113,0.0306,-0.0438,-0.9792,2.397,-3.308,-1.173
1772934021904.6113,0.0314,-0.0484,-0.982,2.459,-3.342,-1.199
1772934021904.6113,0.0321,-0.0476,-0.9793,2.538,-3.351,-1.365
1772934021904.6113,0.0318,-0.0467,-0.9798,2.634,-3.386,-1.426
1772934021904.6113,0.0324,-0.047,-0.9781,2.502,-3.264,-1.242
1772934021904.6113,0.031,-0.0465,-0.98,2.397,-3.325,-1.015
1772934021904.6113,0.0317,-0.0466,-0.9799,2.502,-3.535,-1.444
1772934021904.6113,0.0293,-0.0481,-0.982,2.538,-3.579,-1.531
1772934021904.6113,0.0289,-0.0462,-0.9814,2.607,-3.491,-1.339
1772934021904.6113,0.0303,-0.0476,-0.9761,2.546,-3.413,-1.444
1772934021904.6113,0.0304,-0.0508,-0.9802,2.686,-3.342,-1.374
1772934021904.6113,0.0313,-0.0486,-0.9815,2.704,-3.203,-1.391
1772934021904.6113,0.0283,-0.0501,-0.9806,2.765,-3.413,-1.531
1772934021920.3145,0.0284,-0.0501,-0.9813,2.625,-3.377,-1.4
1772934021920.3145,0.0295,-0.0517,-0.9816,2.73,-3.342,-1.155
1772934021920.3145,0.0284,-0.0522,-0.9824,2.844,-3.255,-1.208
1772934021920.3145,0.0296,-0.0538,-0.9832,3.176,-3.124,-1.295
1772934021920.3145,0.0302,-0.0504,-0.9811,3.281,-3.229,-1.426
1772934021920.3145,0.0305,-0.0515,-0.9812,3.509,-3.404,-1.75
1772934021920.3145,0.0293,-0.0537,-0.982,3.176,-3.377,-1.575
1772934021920.3145,0.0296,-0.053,-0.9811,3.141,-3.264,-1.689
1772934021920.3145,0.0287,-0.0514,-0.9816,3.203,-3.071,-1.794
1772934021920.3145,0.0301,-0.0512,-0.982,3.43,-3.167,-1.776
1772934021920.3145,0.0312,-0.0536,-0.982,3.421,-3.027,-1.61
1772934021920.3145,0.0297,-0.051,-0.9807,3.404,-3.211,-1.54
1772934021920.3145,0.0308,-0.0531,-0.9782,3.482,-3.264,-1.759
1772934021935.579,0.0307,-0.0534,-0.9789,3.5,-3.377,-1.549
1772934021935.579,0.0328,-0.0535,-0.981,3.447,-3.167,-1.269
1772934021935.579,0.0342,-0.0529,-0.9805,3.22,-3.246,-1.208
1772934021935.579,0.0332,-0.0534,-0.9787,3.176,-2.993,-0.989
1772934021935.579,0.0327,-0.0495,-0.9776,2.966,-2.984,-0.927
1772934021935.579,0.0323,-0.051,-0.979,2.922,-2.966,-1.006
1772934021935.579,0.0324,-0.0526,-0.979,3.08,-2.966,-0.945
1772934021935.579,0.0312,-0.0506,-0.9788,2.695,-2.712,-0.551
1772934021935.579,0.0334,-0.049,-0.9765,2.704,-2.704,-0.744
1772934021935.579,0.0334,-0.0479,-0.9786,2.45,-2.791,-0.569
1772934021935.579,0.0334,-0.0476,-0.9755,2.433,-2.739,-0.271
1772934021935.579,0.0332,-0.0477,-0.9737,2.441,-2.748,-0.499
1772934021950.8606,0.0346,-0.0483,-0.9758,2.135,-2.625,-0.403
1772934021950.8606,0.0367,-0.0462,-0.9767,2.004,-2.581,-0.306
1772934021950.8606,0.0367,-0.0462,-0.975,1.802,-2.669,-0.464
1772934021950.8606,0.0383,-0.0454,-0.9743,1.899,-2.529,-0.647
1772934021950.8606,0.0374,-0.0453,-0.974,1.864,-2.31,-0.77
1772934021950.8606,0.0377,-0.0445,-0.9748,1.776,-2.424,-0.866
1772934021950.8606,0.0339,-0.0436,-0.9756,1.663,-2.319,-0.814
1772934021950.8606,0.0326,-0.0426,-0.9728,1.663,-2.1,-0.858
1772934021950.8606,0.0332,-0.0431,-0.975,1.549,-2.083,-0.831
1772934021950.8606,0.0336,-0.0429,-0.9736,1.549,-2.188,-0.77
1772934021950.8606,0.0338,-0.0452,-0.9736,1.365,-2.047,-0.77
1772934021950.8606,0.0322,-0.0455,-0.9725,1.417,-2.135,-0.735
1772934021966.8694,0.0324,-0.0434,-0.9766,1.636,-1.995,-0.438
1772934021966.8694,0.0353,-0.0441,-0.9784,1.522,-1.925,-0.569
1772934021966.8694,0.033,-0.0423,-0.9774,1.531,-1.855,-0.665
1772934021966.8694,0.0347,-0.0411,-0.9783,1.225,-2.152,-0.814
1772934021966.8694,0.0365,-0.0406,-0.9798,1.321,-2.301,-0.595
1772934021966.8694,0.0328,-0.0388,-0.9814,1.374,-2.056,-0.438
1772934021966.8694,0.0343,-0.0406,-0.9795,1.461,-2.109,-0.691
1772934021966.8694,0.0361,-0.0395,-0.981,1.26,-2.205,-0.595
1772934021966.8694,0.0345,-0.0406,-0.9844,1.549,-2.284,-0.525
1772934021966.8694,0.0342,-0.041,-0.9832,1.706,-2.284,-0.639
1772934021966.8694,0.0344,-0.0394,-0.9847,1.593,-2.433,-0.7
1772934021966.8694,0.0347,-0.0405,-0.987,1.663,-2.87,-0.604
1772934021966.8694,0.0361,-0.0422,-0.9893,1.776,-2.756,-0.858
1772934021966.8694,0.0323,-0.0449,-0.9892,1.627,-2.748,-1.006
1772934021982.4233,0.0325,-0.0426,-0.9888,1.663,-3.019,-1.024
1772934021982.4233,0.0322,-0.0444,-0.9925,1.89,-3.264,-1.199
1772934021982.4233,0.0339,-0.0434,-0.9927,1.715,-3.115,-1.173
1772934021982.4233,0.0347,-0.0439,-0.9894,1.855,-3.071,-1.234
1772934021982.4233,0.0318,-0.0445,-0.9934,1.881,-3.413,-1.347
1772934021982.4233,0.0312,-0.0445,-0.9938,1.794,-3.5,-1.155
1772934021982.4233,0.0323,-0.0467,-0.994,1.837,-3.719,-1.103
1772934021982.4233,0.0325,-0.0481,-0.9927,1.899,-3.797,-1.12
1772934021982.4233,0.03,-0.0504,-0.9955,1.768,-3.85,-1.356
1772934021982.4233,0.0331,-0.0468,-0.9919,1.601,-3.885,-1.076
1772934021982.4233,0.0347,-0.0486,-0.9939,1.654,-3.981,-1.111
1772934021982.4233,0.0341,-0.0469,-0.991,1.82,-4.139,-0.989
1772934021997.604,0.0343,-0.0463,-0.9908,1.864,-4.366,-0.674
1772934021997.604,0.0339,-0.0479,-0.9908,1.645,-4.585,-0.927
1772934021997.604,0.0359,-0.0506,-0.9905,1.619,-4.393,-1.024
1772934021997.604,0.037,-0.0492,-0.9903,1.689,-4.375,-0.892
1772934021997.604,0.0354,-0.0491,-0.9866,1.864,-4.638,-0.875
1772934021997.604,0.037,-0.0464,-0.9884,1.776,-4.734,-1.085
1772934021997.604,0.0392,-0.0461,-0.9886,1.969,-4.699,-1.129
1772934021997.604,0.0395,-0.0444,-0.9869,2.065,-4.725,-0.682
1772934021997.604,0.0387,-0.0437,-0.9856,1.96,-4.952,-0.875
1772934021997.604,0.0426,-0.0459,-0.9862,2.118,-4.821,-0.761
1772934021997.604,0.0403,-0.0447,-0.9855,2.039,-4.515,-0.858
1772934021997.604,0.0404,-0.0448,-0.9828,1.995,-4.48,-0.814
1772934022012.9658,0.0415,-0.0441,-0.9883,2.135,-4.664,-0.892
1772934022012.9658,0.0416,-0.0445,-0.9851,2.275,-4.576,-1.032
1772934022012.9658,0.0434,-0.0448,-0.9835,2.223,-4.532,-0.919
1772934022012.9658,0.0448,-0.0415,-0.9841,2.371,-4.524,-0.779
1772934022012.9658,0.0433,-0.0451,-0.9814,2.328,-4.673,-0.647
1772934022012.9658,0.0457,-0.0445,-0.984,2.205,-4.848,-0.761
1772934022012.9658,0.0464,-0.0448,-0.9806,2.231,-5.049,-0.823
1772934022012.9658,0.0451,-0.0415,-0.9784,2.118,-4.83,-0.621
1772934022012.9658,0.0456,-0.0407,-0.98,2.223,-4.489,-0.892
1772934022012.9658,0.0451,-0.0395,-0.9787,2.284,-4.638,-0.849
1772934022012.9658,0.0461,-0.0374,-0.9781,2.38,-4.585,-0.665
1772934022012.9658,0.0445,-0.0376,-0.978,2.354,-4.445,-0.682
1772934022012.9658,0.0448,-0.0378,-0.9776,2.459,-4.532,-0.814
1772934022029.4277,0.0461,-0.0367,-0.975,2.555,-4.646,-0.779
1772934022029.4277,0.0467,-0.0387,-0.9773,2.564,-4.428,-0.779
1772934022029.4277,0.0485,-0.0393,-0.9768,2.634,-4.331,-0.805
1772934022029.4277,0.0469,-0.0388,-0.9747,2.415,-4.515,-0.858
1772934022029.4277,0.0477,-0.0385,-0.9766,2.712,-4.567,-0.84
1772934022029.4277,0.0479,-0.0406,-0.9763,2.739,-4.436,-0.761
1772934022029.4277,0.0503,-0.0414,-0.9773,2.791,-4.419,-0.551
1772934022029.4277,0.0499,-0.0429,-0.9745,2.765,-4.725,-0.779
1772934022029.4277,0.0502,-0.0411,-0.9753,2.669,-4.357,-0.403
1772934022029.4277,0.05,-0.0415,-0.9765,2.8,-4.419,-0.56
1772934022029.4277,0.0526,-0.0406,-0.9781,2.809,-4.165,-0.901
1772934022029.4277,0.0529,-0.0377,-0.9765,2.905,-4.393,-0.63
1772934022029.4277,0.051,-0.0396,-0.9758,3.036,-4.218,-0.586
1772934022044.0334,0.0503,-0.0407,-0.9737,2.914,-4.244,-0.892
1772934022044.0334,0.0504,-0.0426,-0.9759,3.255,-4.2,-0.735
1772934022044.0334,0.0499,-0.0407,-0.976,3.098,-4.279,-0.823
1772934022044.0334,0.0504,-0.04,-0.9756,3.045,-4.086,-0.963
1772934022044.0334,0.0494,-0.0387,-0.9776,3.281,-4.139,-0.98
1772934022044.0334,0.0498,-0.0406,-0.9757,3.351,-4.463,-0.91
1772934022044.0334,0.0503,-0.039,-0.9779,3.325,-4.445,-1.041
1772934022044.0334,0.0477,-0.0407,-0.98,3.456,-4.506,-1.164
1772934022044.0334,0.0464,-0.0384,-0.9814,3.413,-4.445,-1.181
1772934022044.0334,0.048,-0.0388,-0.9783,3.5,-4.69,-1.067
1772934022044.0334,0.0461,-0.0387,-0.981,3.43,-4.594,-1.347
1772934022044.0334,0.0465,-0.0377,-0.9815,3.544,-4.532,-1.417
1772934022059.4045,0.0468,-0.0387,-0.9807,3.587,-4.445,-1.479
1772934022059.4045,0.0445,-0.0395,-0.9779,3.509,-4.524,-1.558
1772934022059.4045,0.0422,-0.0397,-0.9802,3.833,-4.69,-1.295
1772934022059.4045,0.0393,-0.0339,-0.9769,3.675,-4.331,-1.461
1772934022059.4045,0.0355,-0.0307,-0.9798,3.526,-4.393,-1.671
1772934022059.4045,0.0331,-0.0279,-0.9788,3.754,-4.69,-1.811
1772934022059.4045,0.0337,-0.0248,-0.9823,3.553,-4.786,-1.934
1772934022059.4045,0.0339,-0.0296,-0.9839,3.57,-4.751,-2.196
1772934022059.4045,0.0342,-0.0332,-0.9836,3.587,-5.022,-2.336
1772934022059.4045,0.0379,-0.04,-0.9834,3.614,-4.97,-2.45
1772934022059.4045,0.0414,-0.0461,-0.9826,3.526,-5.171,-2.266
1772934022059.4045,0.0404,-0.0473,-0.9816,3.386,-4.961,-1.969
1772934022059.4045,0.0417,-0.0506,-0.977,3.404,-4.874,-1.916
1772934022074.9412,0.0421,-0.0487,-0.9778,3.281,-4.848,-1.47
1772934022074.9412,0.0426,-0.0487,-0.9772,3.491,-4.751,-1.251
1772934022074.9412,0.0428,-0.0485,-0.9784,3.518,-4.812,-1.409
1772934022074.9412,0.0413,-0.0478,-0.9764,3.351,-5.101,-1.356
1772934022074.9412,0.0426,-0.0462,-0.9787,3.054,-5.058,-1.234
1772934022074.9412,0.0423,-0.0482,-0.9774,3.054,-4.944,-1.12
1772934022074.9412,0.0432,-0.0499,-0.9777,2.774,-4.926,-1.164
1772934022074.9412,0.0415,-0.0481,-0.9776,2.783,-4.848,-1.094
1772934022074.9412,0.0413,-0.0495,-0.9745,2.625,-4.848,-1.05
1772934022074.9412,0.0414,-0.049,-0.9787,2.441,-4.707,-1.024
1772934022074.9412,0.0398,-0.05,-0.9764,2.328,-4.716,-0.823
1772934022074.9412,0.0418,-0.0478,-0.9755,2.424,-4.463,-0.726
1772934022090.597,0.0411,-0.048,-0.9797,2.231,-4.541,-0.752
1772934022090.597,0.0405,-0.0463,-0.9781,2.109,-4.445,-0.718
1772934022090.597,0.0401,-0.0456,-0.9794,2.31,-4.428,-0.796
1772934022090.597,0.0406,-0.0452,-0.9775,2.021,-4.489,-0.752
1772934022090.597,0.0386,-0.0441,-0.9789,1.934,-4.454,-0.761
1772934022090.597,0.0356,-0.0435,-0.9777,2.021,-4.2,-0.647
1772934022090.597,0.0377,-0.044,-0.9794,2.144,-4.287,-0.691
1772934022090.597,0.0397,-0.0436,-0.9792,2.266,-4.541,-0.823
1772934022090.597,0.0403,-0.0427,-0.9765,2.223,-4.305,-0.709
1772934022090.597,0.0405,-0.0423,-0.9781,2.056,-4.244,-0.726
1772934022090.597,0.0396,-0.0417,-0.9764,2.231,-4.218,-0.647
1772934022090.597,0.0412,-0.0431,-0.9783,2.214,-4.077,-0.752
1772934022090.597,0.0423,-0.0423,-0.977,2.039,-4.034,-0.569
1772934022106.253,0.0421,-0.0392,-0.9774,2.056,-3.999,-0.665
1772934022106.253,0.0373,-0.0393,-0.9793,2.074,-3.833,-0.709
1772934022106.253,0.0393,-0.0418,-0.9789,2.1,-3.955,-0.814
1772934022106.253,0.0412,-0.0403,-0.9789,2.144,-4.191,-0.927
1772934022106.253,0.0396,-0.0382,-0.9758,2.074,-4.095,-0.7
1772934022106.253,0.0393,-0.039,-0.9748,1.995,-3.85,-0.665
1772934022106.253,0.0396,-0.0414,-0.9751,1.759,-3.841,-0.656
1772934022106.253,0.0407,-0.0393,-0.9743,1.837,-3.745,-0.7
1772934022106.253,0.0423,-0.0388,-0.9768,2.03,-3.938,-0.945
1772934022106.253,0.0414,-0.0394,-0.9739,2.039,-3.64,-0.866
1772934022106.253,0.0448,-0.0402,-0.975,1.907,-3.587,-0.901
1772934022106.253,0.0415,-0.0427,-0.9725,1.794,-3.99,-0.936
1772934022106.253,0.0422,-0.0409,-0.9731,1.732,-3.736,-0.796
1772934022121.3833,0.043,-0.0434,-0.9741,1.768,-3.64,-0.42
1772934022121.3833,0.0422,-0.0415,-0.9769,1.995,-3.71,-0.805
1772934022121.3833,0.042,-0.0418,-0.9758,1.995,-3.623,-0.954
1772934022121.3833,0.041,-0.0392,-0.9744,1.96,-3.614,-0.752
1772934022121.3833,0.0403,-0.0379,-0.9772,2.004,-3.57,-0.691
1772934022121.3833,0.0403,-0.0371,-0.9769,1.916,-3.474,-0.858
1772934022121.3833,0.0396,-0.0386,-0.9761,2.135,-3.404,-0.849
1772934022121.3833,0.0402,-0.0389,-0.9759,2.091,-3.684,-0.963
1772934022121.3833,0.0386,-0.0417,-0.9773,2.17,-3.64,-1.05
1772934022121.3833,0.0405,-0.0406,-0.9777,2.362,-3.885,-1.12
1772934022121.3833,0.0417,-0.0414,-0.9774,2.397,-3.929,-1.19
1772934022121.3833,0.0423,-0.04,-0.9787,2.424,-3.92,-1.173
1772934022137.0808,0.0425,-0.0441,-0.9784,2.424,-3.911,-1.024
1772934022137.0808,0.0432,-0.0392,-0.9766,2.433,-3.868,-1.234
1772934022137.0808,0.0422,-0.0421,-0.9793,2.529,-3.99,-0.971
1772934022137.0808,0.0418,-0.0422,-0.9794,2.433,-3.885,-0.752
1772934022137.0808,0.0402,-0.0407,-0.9803,2.607,-3.902,-0.901
1772934022137.0808,0.0418,-0.0438,-0.9798,2.38,-3.754,-0.971
1772934022137.0808,0.0412,-0.0439,-0.9832,2.406,-3.78,-0.77
1772934022137.0808,0.0445,-0.0428,-0.9844,2.59,-4.209,-0.787
1772934022137.0808,0.0415,-0.0426,-0.9827,2.555,-4.2,-0.884
1772934022137.0808,0.0401,-0.0419,-0.9862,2.678,-4.025,-0.901
1772934022137.0808,0.0428,-0.0398,-0.9819,2.678,-3.815,-0.411
1772934022137.0808,0.0418,-0.04,-0.9816,2.835,-4.13,-0.752
1772934022152.7356,0.0439,-0.0412,-0.9844,2.896,-4.025,-0.901
1772934022152.7356,0.0418,-0.0371,-0.9848,2.888,-4.104,-0.954
1772934022152.7356,0.0428,-0.039,-0.9862,3.211,-4.104,-0.901
1772934022152.7356,0.0413,-0.0395,-0.9855,3.237,-3.99,-1.024
1772934022152.7356,0.0423,-0.0378,-0.9823,3.098,-4.147,-0.936
1772934022152.7356,0.0442,-0.0429,-0.9866,3.203,-4.55,-0.989
1772934022152.7356,0.0435,-0.0419,-0.982,3.413,-4.384,-0.927
1772934022152.7356,0.0428,-0.0392,-0.9845,3.518,-4.183,-1.103
1772934022152.7356,0.0478,-0.0422,-0.9875,3.631,-4.244,-1.164
1772934022152.7356,0.044,-0.0404,-0.9848,3.482,-4.375,-1.295
1772934022152.7356,0.043,-0.0402,-0.9869,3.447,-4.576,-1.269
1772934022152.7356,0.0438,-0.0408,-0.9855,3.456,-4.296,-1.173
1772934022152.7356,0.0431,-0.0401,-0.988,3.587,-4.121,-1.426
1772934022168.448,0.0459,-0.0408,-0.9856,3.535,-4.463,-1.242
1772934022168.448,0.0442,-0.0425,-0.9881,3.64,-4.673,-1.199
1772934022168.448,0.0454,-0.0431,-0.9845,3.518,-4.646,-1.111
1772934022168.448,0.0467,-0.0433,-0.9878,3.369,-4.55,-1.225
1772934022168.448,0.0438,-0.0442,-0.9846,3.299,-4.681,-1.278
1772934022168.448,0.0459,-0.0418,-0.9873,3.351,-4.725,-1.085
1772934022168.448,0.0466,-0.044,-0.9836,3.246,-4.567,-0.875
1772934022168.448,0.0465,-0.0444,-0.9848,3.299,-4.874,-1.015
1772934022168.448,0.0458,-0.0431,-0.9865,3.272,-4.9,-0.866
1772934022168.448,0.05,-0.0424,-0.9849,3.255,-4.97,-0.971
1772934022168.448,0.0476,-0.0445,-0.983,3.342,-4.944,-0.901
1772934022168.448,0.0467,-0.0427,-0.9839,3.106,-5.145,-0.621
1772934022168.448,0.0481,-0.0442,-0.9823,3.062,-5.04,-0.761
1772934022185.191,0.0458,-0.0422,-0.9807,2.931,-4.97,-0.726
1772934022185.191,0.0487,-0.042,-0.9837,2.896,-4.961,-0.718
1772934022185.191,0.0479,-0.0443,-0.9837,2.861,-5.145,-0.858
1772934022185.191,0.0462,-0.0432,-0.981,2.765,-5.031,-0.875
1772934022185.191,0.0451,-0.0456,-0.9818,2.922,-5.128,-0.647
1772934022185.191,0.0462,-0.0443,-0.9811,2.94,-5.32,-0.787
1772934022185.191,0.0476,-0.045,-0.9829,2.721,-5.066,-0.604
1772934022185.191,0.0479,-0.0447,-0.9824,2.914,-5.154,-0.586
1772934022185.191,0.0464,-0.0443,-0.9816,2.599,-5.128,-0.779
1772934022185.191,0.0478,-0.0442,-0.98,2.424,-5.294,-0.464
1772934022185.191,0.0474,-0.0449,-0.9801,2.406,-5.232,-0.411
1772934022185.191,0.0476,-0.0467,-0.982,2.389,-5.04,-0.333
1772934022185.191,0.0451,-0.0445,-0.9838,2.371,-5.224,-0.665
1772934022200.91,0.0462,-0.0462,-0.9812,2.397,-5.206,-0.507
1772934022200.91,0.0467,-0.0431,-0.9784,2.459,-5.434,-0.656
1772934022200.91,0.0454,-0.0461,-0.979,2.538,-5.197,-0.516
1772934022200.91,0.0463,-0.0476,-0.979,2.555,-5.259,-0.647
1772934022200.91,0.0458,-0.0466,-0.9808,2.415,-5.11,-0.77
1772934022200.91,0.0463,-0.047,-0.9801,2.572,-4.883,-0.621
1772934022200.91,0.044,-0.049,-0.9799,2.467,-4.804,-0.674
1772934022200.91,0.0446,-0.0481,-0.9804,2.529,-4.944,-0.796
1772934022200.91,0.0459,-0.0472,-0.9799,2.52,-4.804,-0.595
1772934022200.91,0.0452,-0.0484,-0.9801,1.873,-4.839,-0.411
1772934022200.91,0.0462,-0.0497,-0.9797,2.074,-4.9,-0.542
1772934022200.91,0.0465,-0.0506,-0.979,2.118,-4.909,-0.341
1772934022200.91,0.0439,-0.0486,-0.9792,2.083,-4.681,0.166
1772934022216.2244,0.0448,-0.0481,-0.9788,2.205,-4.734,0.026
1772934022216.2244,0.0431,-0.0468,-0.9792,2.406,-4.725,-0.026
1772934022216.2244,0.0454,-0.045,-0.9773,2.459,-4.673,0.07
1772934022216.2244,0.0456,-0.0436,-0.9766,2.66,-5.014,0.122
1772934022216.2244,0.0442,-0.0412,-0.9796,2.975,-5.066,-0.438
1772934022216.2244,0.0476,-0.04,-0.9764,2.712,-4.97,-0.516
1772934022216.2244,0.0459,-0.0421,-0.9781,2.966,-4.751,-0.63
1772934022216.2244,0.0453,-0.0415,-0.9808,3.036,-4.769,-0.674
1772934022216.2244,0.046,-0.0412,-0.9811,3.272,-4.874,-0.901
1772934022216.2244,0.0461,-0.0424,-0.9795,3.194,-5.162,-0.858
1772934022216.2244,0.0457,-0.0444,-0.9806,3.255,-5.154,-1.137
1772934022216.2244,0.0447,-0.0457,-0.9833,3.255,-4.935,-1.032
1772934022231.4949,0.0404,-0.0461,-0.9828,3.027,-4.926,-1.129
1772934022231.4949,0.0417,-0.044,-0.9799,3.124,-5.066,-0.954
1772934022231.4949,0.0398,-0.0477,-0.9814,3.237,-5.128,-1.041
1772934022231.4949,0.0393,-0.0451,-0.9806,3.334,-5.215,-1.164
1772934022231.4949,0.0395,-0.0454,-0.9775,3.377,-4.952,-0.901
1772934022231.4949,0.0367,-0.045,-0.9799,3.316,-4.944,-0.901
1772934022231.4949,0.0411,-0.0436,-0.9775,3.57,-4.996,-0.936
1772934022231.4949,0.0399,-0.0439,-0.9773,3.325,-4.935,-0.647
1772934022231.4949,0.0395,-0.044,-0.9763,3.395,-4.812,-0.805
1772934022231.4949,0.0399,-0.0412,-0.9775,3.421,-4.979,-0.779
1772934022231.4949,0.0422,-0.0415,-0.9756,3.211,-4.664,-0.831
1772934022231.4949,0.0453,-0.0433,-0.9745,3.369,-4.839,-0.91
1772934022231.4949,0.0429,-0.0436,-0.9749,3.36,-4.795,-0.656
1772934022246.799,0.0428,-0.0448,-0.9763,3.587,-4.83,-0.779
1772934022246.799,0.0417,-0.0467,-0.9742,3.264,-4.935,-0.438
1772934022246.799,0.0449,-0.0431,-0.9733,3.264,-4.777,-0.403
1772934022246.799,0.0441,-0.0433,-0.9714,3.167,-4.603,-0.201
1772934022246.799,0.0416,-0.0447,-0.9765,3.185,-4.742,-0.289
1772934022246.799,0.0448,-0.0409,-0.9743,2.966,-4.9,-0.464
1772934022246.799,0.0453,-0.0428,-0.9751,2.817,-4.594,-0.21
1772934022246.799,0.0425,-0.0411,-0.9777,3.054,-4.655,-0.324
1772934022246.799,0.0431,-0.0423,-0.9737,2.922,-4.603,-0.263
1772934022246.799,0.0442,-0.041,-0.9752,2.966,-4.725,-0.429
1772934022246.799,0.044,-0.0421,-0.9762,2.896,-4.611,-0.245
1772934022246.799,0.0418,-0.0396,-0.9745,2.625,-4.436,0.096
1772934022262.86,0.0413,-0.0392,-0.9748,2.774,-4.681,0.044
1772934022262.86,0.0403,-0.0375,-0.9734,2.756,-4.891,-0.28
1772934022262.86,0.0418,-0.0369,-0.9768,2.669,-4.742,-0.184
1772934022262.86,0.042,-0.0373,-0.975,2.634,-4.699,-0.184
1772934022262.86,0.0422,-0.0374,-0.974,2.669,-4.839,-0.228
1772934022262.86,0.0422,-0.0346,-0.9764,2.686,-4.786,-0.105
1772934022262.86,0.0422,-0.0368,-0.9733,2.599,-4.611,-0.166
1772934022262.86,0.0415,-0.0362,-0.9764,2.651,-4.734,-0.49
1772934022262.86,0.0418,-0.0351,-0.9777,2.546,-4.909,-0.507
1772934022262.86,0.0429,-0.0325,-0.978,2.494,-4.725,-0.35
1772934022262.86,0.0401,-0.0335,-0.976,2.389,-4.812,-0.56
1772934022262.86,0.0401,-0.0344,-0.9775,2.336,-4.795,-0.534
1772934022262.86,0.0421,-0.0334,-0.9779,2.406,-4.707,-0.735
1772934022279.4734,0.0407,-0.0337,-0.9786,2.266,-4.97,-0.709
1772934022279.4734,0.0393,-0.0348,-0.9776,2.336,-4.979,-0.718
1772934022279.4734,0.0423,-0.0341,-0.9787,2.634,-4.935,-0.892
1772934022279.4734,0.0411,-0.033,-0.9746,2.52,-4.734,-0.901
1772934022279.4734,0.0407,-0.0384,-0.9766,2.721,-4.812,-1.076
1772934022279.4734,0.0402,-0.0366,-0.9782,2.87,-5.031,-1.164
1772934022279.4734,0.0423,-0.0367,-0.975,2.844,-5.084,-1.234
1772934022279.4734,0.0414,-0.0409,-0.9753,2.958,-4.777,-1.216
1772934022279.4734,0.0415,-0.0418,-0.9769,2.993,-4.865,-1.269
1772934022279.4734,0.0422,-0.0437,-0.9778,3.106,-4.734,-1.33
1772934022279.4734,0.0402,-0.0439,-0.9742,3.027,-4.716,-1.312
1772934022279.4734,0.0406,-0.0461,-0.9792,3.203,-4.629,-1.278
1772934022279.4734,0.0435,-0.0448,-0.9779,3.203,-4.716,-1.409
1772934022279.4734,0.0417,-0.0468,-0.9754,3.194,-4.594,-1.383
1772934022295.447,0.0417,-0.0473,-0.9742,3.255,-4.786,-1.61
1772934022295.447,0.0402,-0.0504,-0.9758,3.229,-4.734,-1.251
1772934022295.447,0.0423,-0.0509,-0.976,3.15,-4.76,-1.286
1772934022295.447,0.0409,-0.0487,-0.9754,3.377,-4.646,-1.208
1772934022295.447,0.0417,-0.0481,-0.975,3.456,-4.314,-1.321
1772934022295.447,0.0418,-0.0479,-0.9761,3.43,-4.305,-1.242
1772934022295.447,0.0418,-0.0469,-0.9786,3.203,-4.497,-1.208
1772934022295.447,0.0429,-0.0487,-0.9802,3.404,-4.681,-1.225
1772934022295.447,0.0425,-0.0479,-0.9783,3.386,-4.62,-1.006
1772934022295.447,0.0418,-0.0473,-0.9806,3.272,-4.559,-1.111
1772934022295.447,0.0415,-0.0459,-0.9783,3.124,-4.497,-0.98
1772934022295.447,0.0436,-0.0429,-0.981,3.299,-4.497,-1.094
1772934022295.447,0.043,-0.0426,-0.9794,3.098,-4.611,-1.155
1772934022311.2537,0.0436,-0.0415,-0.9788,3.229,-4.83,-0.998
1772934022311.2537,0.0428,-0.04,-0.9784,3.071,-4.55,-1.059
1772934022311.2537,0.0423,-0.0388,-0.979,3.167,-4.576,-1.181
1772934022311.2537,0.0442,-0.0387,-0.9755,3.106,-4.611,-1.059
1772934022311.2537,0.045,-0.0384,-0.9786,3.08,-4.638,-1.103
1772934022311.2537,0.0454,-0.038,-0.9786,2.756,-4.489,-1.365
1772934022311.2537,0.0434,-0.0389,-0.9797,2.783,-4.454,-1.321
1772934022311.2537,0.0449,-0.04,-0.9816,2.634,-4.261,-1.164
1772934022311.2537,0.0447,-0.0389,-0.9798,2.651,-4.147,-1.242
1772934022311.2537,0.046,-0.0383,-0.9788,2.791,-4.357,-1.278
1772934022311.2537,0.0461,-0.0398,-0.9784,2.712,-4.664,-1.339
1772934022311.2537,0.0439,-0.0393,-0.9797,2.59,-4.436,-1.164
1772934022311.2537,0.0451,-0.0423,-0.9791,2.546,-4.366,-1.251
1772934022326.4175,0.044,-0.0432,-0.9811,2.704,-4.445,-1.234
1772934022326.4175,0.043,-0.0416,-0.9801,2.459,-4.393,-1.269
1772934022326.4175,0.0444,-0.0432,-0.9794,2.354,-4.506,-1.286
1772934022326.4175,0.0447,-0.0437,-0.9806,2.599,-4.541,-1.129
1772934022326.4175,0.0439,-0.0443,-0.9838,2.686,-4.41,-1.286
1772934022326.4175,0.0425,-0.0442,-0.981,2.476,-4.532,-1.225
1772934022326.4175,0.0445,-0.0422,-0.98,2.599,-4.55,-1.234
1772934022326.4175,0.0468,-0.0417,-0.9789,2.678,-4.664,-1.356
1772934022326.4175,0.0451,-0.0418,-0.9807,2.704,-4.436,-1.601
1772934022326.4175,0.046,-0.0439,-0.9777,2.607,-4.183,-1.199
1772934022326.4175,0.045,-0.0425,-0.9767,2.616,-4.489,-1.356
1772934022326.4175,0.0449,-0.0423,-0.9787,2.695,-4.366,-1.365
1772934022341.6318,0.0472,-0.0453,-0.9803,2.459,-4.095,-1.347
1772934022341.6318,0.0462,-0.0435,-0.9778,2.721,-4.287,-1.558
1772934022341.6318,0.047,-0.0436,-0.9798,2.844,-4.183,-1.295
1772934022341.6318,0.0448,-0.0445,-0.9811,2.87,-4.183,-1.111
1772934022341.6318,0.0461,-0.0426,-0.978,2.817,-4.147,-1.435
