Time_ms,ax,ay,az,gx,gy,gz
1772978879096.78,-0.1393,0.1011,-0.974,3.351,-6.545,-1.925
1772978879096.78,-0.1408,0.1018,-0.9728,3.01,-6.834,-2.161
1772978879096.78,-0.1395,0.1003,-0.9726,2.774,-6.851,-1.995
1772978879096.78,-0.1382,0.1005,-0.9728,2.59,-7.026,-1.837
1772978879096.78,-0.1406,0.1007,-0.9698,2.292,-6.685,-1.899
1772978879096.78,-0.1408,0.0987,-0.9719,2.214,-6.562,-1.759
1772978879096.78,-0.1434,0.0991,-0.9683,1.873,-6.492,-1.619
1772978879096.78,-0.1431,0.1016,-0.9682,2.065,-6.492,-1.383
1772978879096.78,-0.1439,0.1003,-0.969,2.039,-6.694,-1.645
1772978879096.78,-0.1428,0.1022,-0.9679,1.846,-6.405,-1.383
1772978879096.78,-0.1447,0.1006,-0.9682,1.794,-6.072,-1.208
1772978879096.78,-0.1453,0.0996,-0.9661,1.531,-6.151,-1.216
1772978879096.78,-0.1464,0.1024,-0.9672,1.496,-6.466,-1.181
1772978879112.475,-0.1456,0.1027,-0.9687,1.391,-6.055,-1.347
1772978879112.475,-0.1471,0.1028,-0.9681,1.339,-5.95,-1.155
1772978879112.475,-0.1492,0.1012,-0.9662,1.312,-5.784,-1.26
1772978879112.475,-0.1462,0.1035,-0.9686,1.347,-5.915,-1.19
1772978879112.475,-0.1484,0.1037,-0.9663,1.12,-5.714,-1.015
1772978879112.475,-0.1487,0.1042,-0.9672,1.181,-5.513,-1.137
1772978879112.475,-0.1499,0.1039,-0.9651,1.216,-5.574,-1.164
1772978879112.475,-0.1519,0.1052,-0.9693,1.383,-5.451,-1.12
1772978879112.475,-0.151,0.103,-0.9679,1.409,-5.294,-0.989
1772978879112.475,-0.1519,0.1053,-0.9675,1.321,-5.25,-0.901
1772978879112.475,-0.1549,0.1051,-0.9684,1.234,-4.944,-0.823
1772978879112.475,-0.1529,0.106,-0.9676,1.522,-4.987,-0.665
1772978879127.8853,-0.1549,0.1039,-0.9675,1.505,-5.022,-0.779
1772978879127.8853,-0.1554,0.1043,-0.966,1.689,-4.795,-1.032
1772978879127.8853,-0.156,0.1062,-0.9677,1.873,-4.629,-0.892
1772978879127.8853,-0.1557,0.1052,-0.9686,1.995,-4.471,-0.91
1772978879127.8853,-0.1579,0.1062,-0.9673,2.047,-4.55,-1.015
1772978879127.8853,-0.1548,0.107,-0.9687,2.1,-4.681,-0.875
1772978879127.8853,-0.1549,0.1057,-0.9687,2.144,-4.226,-0.814
1772978879127.8853,-0.1576,0.1055,-0.9671,2.354,-4.384,-0.866
1772978879127.8853,-0.1555,0.1057,-0.9687,2.354,-4.112,-1.173
1772978879127.8853,-0.1546,0.106,-0.9692,2.45,-4.218,-0.98
1772978879127.8853,-0.1581,0.1074,-0.9693,2.345,-4.191,-1.12
1772978879127.8853,-0.1559,0.1058,-0.9655,2.284,-3.911,-1.111
1772978879127.8853,-0.1577,0.1072,-0.9662,2.616,-3.981,-0.892
1772978879143.0752,-0.1571,0.1052,-0.9682,2.572,-3.92,-1.05
1772978879143.0752,-0.1571,0.1099,-0.9698,2.651,-3.824,-1.067
1772978879143.0752,-0.1572,0.1058,-0.9679,2.861,-3.789,-0.805
1772978879143.0752,-0.1571,0.1065,-0.9687,2.914,-3.692,-0.998
1772978879143.0752,-0.1584,0.1057,-0.9701,2.94,-3.491,-1.067
1772978879143.0752,-0.1574,0.104,-0.9696,2.8,-3.763,-0.936
1772978879143.0752,-0.1559,0.1054,-0.9677,2.783,-3.579,-1.137
1772978879143.0752,-0.1565,0.1067,-0.967,2.922,-3.509,-1.094
1772978879143.0752,-0.1579,0.1065,-0.9656,2.931,-3.763,-1.347
1772978879143.0752,-0.1579,0.1066,-0.9671,2.721,-3.386,-1.242
1772978879143.0752,-0.157,0.1063,-0.965,2.888,-3.526,-1.295
1772978879143.0752,-0.1579,0.1064,-0.9656,3.08,-3.404,-1.593
1772978879158.3403,-0.1615,0.1039,-0.9664,2.774,-3.325,-1.654
1772978879158.3403,-0.1571,0.1077,-0.9633,2.853,-3.308,-1.715
1772978879158.3403,-0.1574,0.1036,-0.9626,2.931,-3.176,-1.47
1772978879158.3403,-0.1582,0.1053,-0.9615,2.572,-3.334,-1.794
1772978879158.3403,-0.1571,0.1061,-0.9621,2.651,-3.062,-1.671
1772978879158.3403,-0.1574,0.1061,-0.9626,2.494,-2.931,-1.759
1772978879158.3403,-0.1575,0.1063,-0.9618,2.712,-3.036,-1.636
1772978879158.3403,-0.1613,0.1058,-0.9597,2.45,-3.299,-1.794
1772978879158.3403,-0.1566,0.1064,-0.9607,2.555,-3.08,-1.759
1772978879158.3403,-0.1571,0.1057,-0.9625,2.441,-2.774,-1.811
1772978879158.3403,-0.1577,0.1075,-0.9609,2.319,-2.73,-1.969
1772978879158.3403,-0.1555,0.1093,-0.9579,2.249,-2.905,-1.934
1772978879158.3403,-0.1553,0.1057,-0.9601,2.328,-2.922,-1.873
1772978879173.1677,-0.1564,0.1072,-0.9609,2.354,-2.581,-2.109
1772978879173.1677,-0.158,0.1096,-0.9599,2.424,-2.931,-2.004
1772978879173.1677,-0.1579,0.1103,-0.9614,2.17,-2.616,-2.249
1772978879173.1677,-0.1549,0.1071,-0.9604,2.546,-2.695,-2.083
1772978879173.1677,-0.1564,0.1085,-0.9573,2.38,-2.616,-2.065
1772978879173.1677,-0.1557,0.1067,-0.9561,2.118,-2.651,-2.039
1772978879173.1677,-0.1557,0.1091,-0.9582,2.292,-2.809,-1.986
1772978879173.1677,-0.1555,0.1057,-0.9589,2.529,-2.791,-2.074
1772978879173.1677,-0.1536,0.1074,-0.9593,2.564,-2.844,-2.109
1772978879173.1677,-0.1545,0.1077,-0.9554,2.739,-2.756,-1.82
1772978879173.1677,-0.1515,0.1066,-0.9564,2.835,-2.406,-2.161
1772978879173.1677,-0.1529,0.1082,-0.9567,2.756,-2.669,-2.17
1772978879188.78,-0.1502,0.1088,-0.9589,2.66,-2.467,-1.978
1772978879188.78,-0.1526,0.1079,-0.9576,2.748,-2.564,-1.978
1772978879188.78,-0.1512,0.1046,-0.9559,3.019,-2.581,-1.899
1772978879188.78,-0.1515,0.1048,-0.9606,3.203,-2.678,-1.925
1772978879188.78,-0.1516,0.106,-0.9584,3.334,-2.564,-1.732
1772978879188.78,-0.1504,0.1041,-0.957,3.29,-2.73,-1.593
1772978879188.78,-0.1526,0.1065,-0.9593,3.246,-2.704,-1.584
1772978879188.78,-0.1474,0.1072,-0.9565,3.264,-2.669,-1.522
1772978879188.78,-0.1466,0.1063,-0.9583,3.413,-2.975,-1.54
1772978879188.78,-0.1459,0.1062,-0.9614,3.299,-3.045,-1.575
1772978879188.78,-0.146,0.1053,-0.9625,3.413,-3.045,-1.286
1772978879188.78,-0.1441,0.1044,-0.9609,3.518,-3.185,-1.365
1772978879188.78,-0.146,0.1064,-0.96,3.64,-3.124,-1.269
1772978879204.2012,-0.1477,0.1074,-0.9633,3.684,-2.993,-1.155
1772978879204.2012,-0.1457,0.1064,-0.9625,3.71,-3.255,-0.971
1772978879204.2012,-0.1455,0.1065,-0.9625,3.623,-3.561,-0.963
1772978879204.2012,-0.1441,0.1053,-0.9634,3.658,-3.5,-0.945
1772978879204.2012,-0.1454,0.1044,-0.9653,3.78,-3.684,-0.91
1772978879204.2012,-0.1435,0.1065,-0.9664,3.806,-3.868,-0.901
1772978879204.2012,-0.144,0.105,-0.9621,3.64,-3.623,-0.831
1772978879204.2012,-0.1456,0.1038,-0.9659,3.833,-3.973,-0.989
1772978879204.2012,-0.1435,0.1055,-0.966,3.99,-4.156,-0.91
1772978879204.2012,-0.1465,0.1042,-0.9667,3.902,-4.218,-0.752
1772978879204.2012,-0.1432,0.1031,-0.9692,4.008,-4.699,-0.823
1772978879204.2012,-0.1456,0.103,-0.9694,3.85,-4.62,-0.849
1772978879219.731,-0.1416,0.1053,-0.9693,3.771,-4.62,-0.927
1772978879219.731,-0.1423,0.1021,-0.969,3.797,-4.856,-0.858
1772978879219.731,-0.1427,0.1046,-0.9692,3.789,-5.075,-0.814
1772978879219.731,-0.1406,0.1035,-0.9675,3.684,-5.154,-1.006
1772978879219.731,-0.1409,0.1041,-0.9682,3.631,-5.224,-0.998
1772978879219.731,-0.1401,0.1049,-0.9697,3.701,-5.521,-1.286
1772978879219.731,-0.1402,0.1022,-0.9702,3.491,-5.478,-0.989
1772978879219.731,-0.1415,0.1028,-0.9688,3.553,-5.478,-1.024
1772978879219.731,-0.1398,0.1016,-0.9721,3.456,-5.644,-1.155
1772978879219.731,-0.1401,0.1008,-0.9719,3.439,-5.723,-1.173
1772978879219.731,-0.1394,0.1014,-0.97,3.316,-5.836,-1.059
1772978879219.731,-0.1387,0.1003,-0.9704,3.299,-5.836,-1.006
1772978879219.731,-0.1405,0.1006,-0.9705,3.308,-6.143,-1.295
1772978879235.7258,-0.1412,0.0997,-0.9705,3.22,-6.3,-1.452
1772978879235.7258,-0.1419,0.101,-0.9717,2.975,-6.282,-1.636
1772978879235.7258,-0.1401,0.0994,-0.9722,2.958,-6.134,-1.584
1772978879235.7258,-0.1404,0.0991,-0.9703,2.993,-6.414,-1.496
1772978879235.7258,-0.141,0.0991,-0.9719,2.669,-6.65,-1.479
1772978879235.7258,-0.1413,0.0997,-0.9694,2.625,-6.615,-1.479
1772978879235.7258,-0.14,0.1,-0.9729,2.599,-6.702,-1.54
1772978879235.7258,-0.1404,0.0983,-0.97,2.476,-7.018,-1.794
1772978879235.7258,-0.1412,0.0986,-0.9739,2.494,-6.912,-1.724
1772978879235.7258,-0.1421,0.0973,-0.9719,2.406,-6.912,-1.558
1772978879235.7258,-0.1403,0.0991,-0.9677,2.328,-6.93,-1.645
1772978879235.7258,-0.1398,0.0967,-0.97,2.223,-7.026,-1.706
1772978879235.7258,-0.1399,0.0969,-0.9723,2.397,-7.079,-1.82
1772978879251.1726,-0.1404,0.0985,-0.9694,2.196,-7.122,-1.776
1772978879251.1726,-0.1394,0.0971,-0.9706,2.214,-7.14,-1.802
1772978879251.1726,-0.1407,0.0963,-0.9692,2.126,-7.088,-1.855
1772978879251.1726,-0.1425,0.0982,-0.969,2.021,-7.079,-1.873
1772978879251.1726,-0.1425,0.0983,-0.9691,1.846,-6.991,-1.654
1772978879251.1726,-0.1395,0.0989,-0.9655,1.776,-7.263,-1.689
1772978879251.1726,-0.1431,0.0977,-0.9694,1.811,-7.455,-1.75
1772978879251.1726,-0.1409,0.0988,-0.9673,1.829,-7.332,-1.934
1772978879251.1726,-0.1419,0.0995,-0.969,1.785,-7.49,-1.846
1772978879251.1726,-0.1401,0.1,-0.9698,1.689,-7.254,-1.837
1772978879251.1726,-0.1421,0.0971,-0.9683,1.601,-7.219,-1.925
1772978879251.1726,-0.1438,0.0963,-0.9654,1.689,-6.921,-1.75
1772978879266.6938,-0.141,0.0969,-0.9667,1.619,-6.834,-1.671
1772978879266.6938,-0.1437,0.0969,-0.9651,1.671,-7.044,-1.75
1772978879266.6938,-0.1452,0.0979,-0.9656,1.426,-7.131,-1.4
1772978879266.6938,-0.1434,0.0994,-0.9645,1.409,-7.035,-1.82
1772978879266.6938,-0.1468,0.0985,-0.9638,1.671,-6.86,-1.995
1772978879266.6938,-0.1451,0.097,-0.9643,1.444,-6.834,-1.698
1772978879266.6938,-0.1437,0.0989,-0.9617,1.645,-6.746,-1.724
1772978879266.6938,-0.1488,0.0987,-0.9622,1.417,-6.816,-1.671
1772978879266.6938,-0.1437,0.1005,-0.9608,1.374,-6.912,-1.671
1772978879266.6938,-0.1435,0.1005,-0.9632,1.426,-6.764,-1.619
1772978879266.6938,-0.1459,0.098,-0.9645,1.383,-6.125,-1.601
1772978879266.6938,-0.146,0.0995,-0.962,1.4,-6.326,-1.558
1772978879266.6938,-0.1447,0.0998,-0.9607,1.321,-6.16,-1.593
1772978879282.504,-0.1466,0.0999,-0.9599,1.321,-6.003,-1.479
1772978879282.504,-0.1473,0.1013,-0.9602,1.47,-5.784,-1.785
1772978879282.504,-0.1485,0.1002,-0.9615,1.488,-5.933,-1.558
1772978879282.504,-0.1465,0.1017,-0.961,1.663,-5.688,-1.461
1772978879282.504,-0.1469,0.1011,-0.9609,1.689,-5.407,-1.636
1772978879282.504,-0.1468,0.1014,-0.9588,1.601,-5.513,-1.417
1772978879282.504,-0.1466,0.101,-0.9581,1.75,-5.355,-1.365
1772978879282.504,-0.146,0.1014,-0.9557,1.636,-5.084,-1.514
1772978879282.504,-0.147,0.1018,-0.9557,1.96,-4.979,-1.321
1772978879282.504,-0.1478,0.1031,-0.9593,2.17,-4.918,-1.347
1772978879282.504,-0.1484,0.1008,-0.9566,1.986,-4.734,-1.356
1772978879282.504,-0.1476,0.1022,-0.9554,2.004,-4.463,-1.076
1772978879282.504,-0.1489,0.1002,-0.9579,2.039,-4.357,-1.076
1772978879298.032,-0.1505,0.1015,-0.9554,2.362,-4.445,-1.374
1772978879298.032,-0.1482,0.1055,-0.9553,2.354,-4.095,-1.12
1772978879298.032,-0.1492,0.1036,-0.9571,2.538,-4.086,-0.998
1772978879298.032,-0.1499,0.1031,-0.9557,2.634,-3.833,-1.006
1772978879298.032,-0.1521,0.1035,-0.9575,2.607,-3.806,-1.111
1772978879298.032,-0.1525,0.1028,-0.9571,2.625,-3.824,-1.032
1772978879298.032,-0.1513,0.1039,-0.9527,2.783,-3.64,-0.866
1772978879298.032,-0.152,0.1032,-0.9586,2.896,-3.447,-0.866
1772978879298.032,-0.1517,0.1057,-0.9587,3.281,-3.736,-1.076
1772978879298.032,-0.1526,0.1018,-0.9577,3.036,-3.439,-0.744
1772978879298.032,-0.1548,0.1025,-0.9564,3.194,-3.447,-0.91
1772978879298.032,-0.1527,0.1046,-0.9577,3.404,-3.43,-0.718
1772978879313.6455,-0.1514,0.1038,-0.9598,3.36,-3.351,-0.709
1772978879313.6455,-0.1534,0.1047,-0.9616,3.325,-3.413,-0.779
1772978879313.6455,-0.1549,0.1045,-0.9593,3.456,-3.736,-0.761
1772978879313.6455,-0.1538,0.1046,-0.9595,3.544,-3.579,-0.796
1772978879313.6455,-0.155,0.1045,-0.9614,3.561,-3.395,-0.7
1772978879313.6455,-0.1536,0.1051,-0.9601,3.5,-3.474,-1.041
1772978879313.6455,-0.1538,0.1037,-0.9604,3.43,-3.141,-1.015
1772978879313.6455,-0.1524,0.1039,-0.9618,3.535,-3.386,-0.858
1772978879313.6455,-0.1524,0.1031,-0.9609,3.482,-3.553,-0.892
1772978879313.6455,-0.152,0.1052,-0.9631,3.587,-3.237,-0.831
1772978879313.6455,-0.1524,0.1037,-0.9597,3.526,-3.596,-0.735
1772978879313.6455,-0.1547,0.1063,-0.9636,3.561,-3.85,-0.945
1772978879313.6455,-0.1536,0.103,-0.963,3.404,-3.719,-1.129
1772978879328.7878,-0.1523,0.1049,-0.9639,3.439,-3.797,-0.726
1772978879328.7878,-0.1559,0.104,-0.9643,3.377,-3.789,-0.866
1772978879328.7878,-0.1543,0.106,-0.9642,3.255,-4.051,-0.901
1772978879328.7878,-0.1542,0.1063,-0.9663,3.316,-4.139,-0.945
1772978879328.7878,-0.154,0.105,-0.9646,3.465,-4.41,-1.286
1772978879328.7878,-0.1532,0.106,-0.967,3.342,-4.497,-1.461
1772978879328.7878,-0.1524,0.1055,-0.9651,3.054,-4.428,-1.26
1772978879328.7878,-0.1526,0.105,-0.9648,3.08,-4.646,-1.278
1772978879328.7878,-0.1528,0.1067,-0.9656,3.124,-4.603,-1.26
1772978879328.7878,-0.1516,0.1057,-0.9679,3.08,-4.848,-1.225
1772978879328.7878,-0.1507,0.1059,-0.9632,3.325,-4.821,-1.426
1772978879328.7878,-0.1507,0.1039,-0.9656,3.124,-4.76,-1.479
1772978879344.6355,-0.1516,0.1052,-0.9662,2.879,-4.821,-1.234
1772978879344.6355,-0.1513,0.1055,-0.9668,3.001,-4.821,-1.286
1772978879344.6355,-0.1499,0.1041,-0.9659,2.931,-4.961,-1.566
1772978879344.6355,-0.1503,0.1057,-0.9646,2.958,-4.987,-1.558
1772978879344.6355,-0.1487,0.1041,-0.9645,2.835,-5.031,-1.488
1772978879344.6355,-0.1515,0.1041,-0.9672,3.027,-5.303,-1.654
1772978879344.6355,-0.1502,0.1026,-0.9688,2.721,-5.197,-1.479
1772978879344.6355,-0.1499,0.1055,-0.9632,2.844,-5.232,-1.593
1772978879344.6355,-0.1498,0.1052,-0.9654,2.826,-5.416,-1.645
1772978879344.6355,-0.1482,0.1053,-0.9637,2.984,-5.442,-1.566
1772978879344.6355,-0.1501,0.1066,-0.9663,3.01,-5.311,-1.802
1772978879344.6355,-0.1512,0.106,-0.9656,3.036,-5.241,-1.601
1772978879344.6355,-0.1491,0.1082,-0.9625,3.062,-5.67,-1.619
1772978879360.2866,-0.1505,0.1074,-0.9654,2.826,-5.574,-1.759
1772978879360.2866,-0.1491,0.1057,-0.9655,2.896,-5.451,-1.785
1772978879360.2866,-0.1487,0.1056,-0.964,3.045,-5.521,-1.768
1772978879360.2866,-0.1486,0.1051,-0.9658,3.098,-5.539,-1.61
1772978879360.2866,-0.148,0.1045,-0.9647,3.071,-5.644,-1.785
1772978879360.2866,-0.1472,0.1071,-0.9682,3.019,-5.407,-1.802
1772978879360.2866,-0.1471,0.1058,-0.9659,3.019,-5.329,-1.995
1772978879360.2866,-0.1468,0.1053,-0.9684,3.036,-5.355,-1.916
1772978879360.2866,-0.1469,0.1072,-0.9638,3.124,-5.093,-1.942
1772978879360.2866,-0.1478,0.1079,-0.9662,2.896,-5.224,-1.715
1772978879360.2866,-0.1449,0.1046,-0.9656,3.08,-5.206,-1.873
1772978879360.2866,-0.1457,0.1074,-0.9648,3.141,-5.372,-1.995
1772978879375.858,-0.1452,0.1057,-0.9658,3.211,-5.285,-1.969
1772978879375.858,-0.1458,0.1063,-0.9643,3.395,-5.268,-1.96
1772978879375.858,-0.1447,0.1056,-0.9662,3.167,-5.232,-1.864
1772978879375.858,-0.1444,0.1071,-0.9667,3.176,-5.451,-1.951
1772978879375.858,-0.1446,0.1069,-0.9678,3.132,-5.364,-1.899
1772978879375.858,-0.1443,0.1078,-0.9694,3.334,-5.154,-1.785
1772978879375.858,-0.1458,0.1077,-0.9654,3.491,-5.276,-1.864
1772978879375.858,-0.1448,0.1069,-0.9681,3.369,-5.058,-1.785
1772978879375.858,-0.1449,0.1078,-0.9675,3.264,-5.39,-1.942
1772978879375.858,-0.1426,0.1091,-0.9681,3.237,-5.32,-1.899
1772978879375.858,-0.1398,0.1043,-0.9684,3.246,-5.162,-1.698
1772978879375.858,-0.142,0.1074,-0.9689,3.264,-5.128,-1.873
1772978879375.858,-0.1421,0.1077,-0.9677,3.237,-5.276,-1.811
1772978879391.2236,-0.14,0.106,-0.969,3.281,-5.162,-1.846
1772978879391.2236,-0.1405,0.1054,-0.968,3.089,-5.197,-1.811
1772978879391.2236,-0.1408,0.1063,-0.9694,3.246,-5.425,-1.593
1772978879391.2236,-0.1408,0.1056,-0.9709,3.246,-5.162,-1.768
1772978879391.2236,-0.1383,0.105,-0.97,3.377,-5.303,-1.785
1772978879391.2236,-0.1393,0.106,-0.9679,3.334,-5.434,-1.61
1772978879391.2236,-0.1383,0.1039,-0.9729,3.272,-5.46,-1.689
1772978879391.2236,-0.1408,0.1058,-0.969,3.15,-5.399,-1.479
1772978879391.2236,-0.1398,0.1067,-0.9696,3.203,-5.451,-1.452
1772978879391.2236,-0.1425,0.1057,-0.9712,3.246,-5.46,-1.663
1772978879391.2236,-0.1399,0.1062,-0.9672,3.194,-5.495,-1.654
1772978879391.2236,-0.1407,0.1038,-0.9691,3.045,-5.521,-1.426
1772978879391.2236,-0.1391,0.1061,-0.9687,3.089,-5.399,-1.383
1772978879407.4817,-0.1393,0.1058,-0.9677,2.94,-5.18,-1.409
1772978879407.4817,-0.1395,0.1062,-0.9679,2.993,-5.259,-1.374
1772978879407.4817,-0.1391,0.1039,-0.9663,3.308,-5.67,-1.444
1772978879407.4817,-0.1396,0.1069,-0.9683,3.325,-5.53,-1.593
1772978879407.4817,-0.1404,0.1067,-0.9692,3.15,-5.145,-1.514
1772978879407.4817,-0.1419,0.1035,-0.9711,2.914,-5.285,-1.452
1772978879407.4817,-0.1413,0.1049,-0.9632,2.958,-5.407,-1.452
1772978879407.4817,-0.1432,0.1038,-0.9684,2.853,-5.425,-1.654
1772978879407.4817,-0.1433,0.1036,-0.9665,3.15,-5.469,-1.584
1772978879407.4817,-0.1421,0.1053,-0.962,3.141,-5.661,-1.575
1772978879407.4817,-0.1434,0.1056,-0.963,3.036,-5.32,-1.47
1772978879407.4817,-0.1426,0.105,-0.9655,2.931,-5.18,-1.208
1772978879407.4817,-0.146,0.105,-0.9633,3.115,-5.276,-1.076
1772978879423.231,-0.1441,0.1032,-0.9636,3.167,-5.11,-1.137
1772978879423.231,-0.1446,0.1042,-0.9642,3.246,-4.97,-1.356
1772978879423.231,-0.1444,0.1038,-0.9614,3.272,-4.979,-1.47
1772978879423.231,-0.1445,0.1053,-0.9622,2.958,-4.979,-1.505
1772978879423.231,-0.1461,0.1041,-0.9618,3.071,-4.83,-1.383
1772978879423.231,-0.147,0.1046,-0.9618,3.141,-4.777,-1.549
1772978879423.231,-0.1479,0.1054,-0.9624,2.993,-4.707,-1.488
1772978879423.231,-0.148,0.1028,-0.9609,2.949,-4.594,-1.496
1772978879423.231,-0.1484,0.1042,-0.9603,2.835,-4.55,-1.4
1772978879423.231,-0.1482,0.1044,-0.9622,2.958,-4.646,-1.435
1772978879423.231,-0.1483,0.1038,-0.9617,2.94,-4.532,-1.356
1772978879423.231,-0.1473,0.1058,-0.9615,2.94,-4.454,-1.391
1772978879439.4043,-0.148,0.1044,-0.9622,3.132,-4.48,-1.409
1772978879439.4043,-0.1491,0.1009,-0.9632,3.062,-4.331,-1.584
1772978879439.4043,-0.1518,0.1061,-0.9598,3.001,-4.147,-1.488
1772978879439.4043,-0.1493,0.1035,-0.9593,2.853,-4.261,-1.593
1772978879439.4043,-0.15,0.1019,-0.9637,3.027,-4.244,-1.488
1772978879439.4043,-0.1497,0.1019,-0.9622,2.966,-4.06,-1.435
1772978879439.4043,-0.1499,0.1022,-0.9625,2.739,-4.086,-1.278
1772978879439.4043,-0.15,0.1019,-0.9625,2.931,-3.964,-1.549
1772978879439.4043,-0.1494,0.0998,-0.9628,2.651,-3.929,-1.435
1772978879439.4043,-0.1493,0.1018,-0.9637,2.502,-3.763,-1.531
1772978879439.4043,-0.151,0.099,-0.9649,2.739,-3.745,-1.365
1772978879439.4043,-0.1515,0.1015,-0.9637,2.783,-3.841,-1.452
1772978879439.4043,-0.1516,0.1022,-0.9631,2.511,-3.596,-1.479
1772978879455.1643,-0.1534,0.0987,-0.9632,2.625,-3.666,-1.426
1772978879455.1643,-0.152,0.1013,-0.9632,2.572,-3.902,-1.698
1772978879455.1643,-0.1491,0.1016,-0.9629,2.301,-3.815,-1.732
1772978879455.1643,-0.1506,0.1,-0.9659,2.118,-3.85,-1.4
1772978879455.1643,-0.152,0.1021,-0.9653,2.31,-3.763,-1.593
1772978879455.1643,-0.1519,0.1022,-0.9656,2.354,-3.675,-1.619
1772978879455.1643,-0.1521,0.1,-0.9668,2.196,-3.736,-1.435
1772978879455.1643,-0.1525,0.106,-0.9655,2.1,-3.815,-1.531
1772978879455.1643,-0.1507,0.1018,-0.9649,2.074,-3.894,-1.68
1772978879455.1643,-0.1516,0.1014,-0.9623,2.345,-3.64,-1.698
1772978879455.1643,-0.1499,0.1018,-0.967,2.047,-3.649,-1.435
1772978879455.1643,-0.1498,0.1036,-0.9648,1.96,-3.868,-1.461
1772978879455.1643,-0.1491,0.1014,-0.9664,1.785,-3.938,-1.383
1772978879470.6443,-0.1509,0.1034,-0.964,1.846,-4.008,-1.374
1772978879470.6443,-0.1486,0.1042,-0.9634,1.724,-4.095,-1.479
1772978879470.6443,-0.1484,0.1032,-0.965,1.522,-4.261,-1.47
1772978879470.6443,-0.1474,0.1022,-0.9643,1.732,-4.174,-1.452
1772978879470.6443,-0.1472,0.1033,-0.965,1.75,-4.086,-1.444
1772978879470.6443,-0.1494,0.1045,-0.9631,1.75,-4.218,-1.531
1772978879470.6443,-0.1489,0.1038,-0.9638,1.479,-4.393,-1.68
1772978879470.6443,-0.1495,0.1049,-0.9645,1.68,-4.357,-1.68
1772978879470.6443,-0.1489,0.1056,-0.9639,1.636,-4.331,-1.417
1772978879470.6443,-0.1482,0.1069,-0.964,1.768,-4.183,-1.496
1772978879470.6443,-0.1474,0.105,-0.9614,1.636,-4.112,-1.242
1772978879470.6443,-0.1466,0.1063,-0.9639,1.531,-4.471,-1.33
1772978879470.6443,-0.1452,0.1064,-0.9632,1.811,-4.445,-1.47
1772978879485.8013,-0.1461,0.1047,-0.9639,1.636,-4.55,-1.339
1772978879485.8013,-0.1462,0.1069,-0.9644,1.61,-4.401,-1.208
1772978879485.8013,-0.1446,0.105,-0.9626,1.636,-4.445,-1.321
1772978879485.8013,-0.1457,0.1041,-0.9636,1.654,-4.874,-1.33
1772978879485.8013,-0.1449,0.1066,-0.9633,1.759,-4.532,-1.479
1772978879485.8013,-0.1452,0.1067,-0.9608,1.61,-4.41,-1.409
1772978879485.8013,-0.1457,0.1083,-0.9632,1.794,-4.725,-1.54
1772978879485.8013,-0.1433,0.1077,-0.9612,1.829,-4.821,-1.435
1772978879485.8013,-0.144,0.1057,-0.9625,1.873,-4.751,-1.321
1772978879485.8013,-0.144,0.1074,-0.9631,1.96,-4.909,-1.374
1772978879485.8013,-0.1443,0.1092,-0.9623,1.986,-4.918,-1.593
1772978879485.8013,-0.1433,0.1077,-0.9624,1.96,-4.996,-1.549
1772978879501.0627,-0.1432,0.1088,-0.9614,2.021,-4.839,-1.584
1772978879501.0627,-0.143,0.1065,-0.9636,2.083,-4.856,-1.514
1772978879501.0627,-0.1434,0.1088,-0.9617,2.1,-4.987,-1.488
1772978879501.0627,-0.1418,0.106,-0.9618,2.109,-4.664,-1.269
1772978879501.0627,-0.1421,0.1076,-0.9648,2.135,-4.979,-1.426
1772978879501.0627,-0.1396,0.1053,-0.9624,2.214,-5.18,-1.365
1772978879501.0627,-0.1409,0.1055,-0.9627,2.231,-4.952,-1.278
1772978879501.0627,-0.1429,0.1065,-0.9637,2.214,-4.804,-1.347
1772978879501.0627,-0.1417,0.1071,-0.9652,2.345,-5.084,-1.47
1772978879501.0627,-0.1423,0.105,-0.9634,2.354,-5.18,-1.417
1772978879501.0627,-0.143,0.1082,-0.9614,2.485,-5.075,-1.391
1772978879501.0627,-0.141,0.1066,-0.9622,2.59,-5.014,-1.383
1772978879516.3499,-0.1441,0.105,-0.9642,2.564,-5.268,-1.234
1772978879516.3499,-0.1417,0.1055,-0.9643,2.651,-5.259,-1.391
1772978879516.3499,-0.1418,0.1045,-0.9645,2.59,-5.189,-1.444
1772978879516.3499,-0.1427,0.1067,-0.964,2.476,-5.119,-1.295
1772978879516.3499,-0.1408,0.1043,-0.9637,2.546,-5.11,-1.566
1772978879516.3499,-0.1446,0.1053,-0.9653,2.835,-5.224,-1.391
1772978879516.3499,-0.1437,0.1054,-0.9659,3.001,-5.093,-1.566
1772978879516.3499,-0.1432,0.1046,-0.9662,2.783,-5.171,-1.417
1772978879516.3499,-0.1455,0.1044,-0.9656,2.774,-5.084,-1.269
1772978879516.3499,-0.1425,0.1038,-0.9667,3.071,-5.101,-1.216
1772978879516.3499,-0.1438,0.1052,-0.9654,2.914,-4.909,-1.286
1772978879516.3499,-0.1448,0.1044,-0.9628,3.098,-5.128,-1.391
1772978879516.3499,-0.1422,0.1051,-0.9635,2.748,-5.066,-1.269
1772978879531.8345,-0.1414,0.1055,-0.9672,2.87,-5.136,-1.365
1772978879531.8345,-0.1443,0.1049,-0.9656,3.062,-5.136,-1.19
1772978879531.8345,-0.1432,0.1034,-0.9665,3.299,-5.04,-1.356
1772978879531.8345,-0.1418,0.105,-0.9664,3.098,-4.987,-1.444
1772978879531.8345,-0.1418,0.1027,-0.9678,3.203,-5.04,-1.409
1772978879531.8345,-0.1444,0.103,-0.9651,3.062,-5.224,-1.216
1772978879531.8345,-0.1413,0.104,-0.9657,3.299,-5.093,-1.295
1772978879531.8345,-0.1432,0.106,-0.9686,3.237,-5.031,-1.383
1772978879531.8345,-0.1449,0.102,-0.9672,3.377,-5.513,-1.47
1772978879531.8345,-0.1419,0.1038,-0.9702,3.159,-5.311,-1.61
1772978879531.8345,-0.1399,0.1032,-0.9677,3.194,-5.189,-1.601
1772978879531.8345,-0.1436,0.105,-0.9658,3.264,-5.434,-1.444
1772978879531.8345,-0.1438,0.1022,-0.9665,3.211,-5.539,-1.575
1772978879547.916,-0.1418,0.1056,-0.9681,2.993,-5.303,-1.671
1772978879547.916,-0.1409,0.1018,-0.9682,2.975,-5.206,-1.593
1772978879547.916,-0.1435,0.1017,-0.9662,3.045,-5.259,-1.4
1772978879547.916,-0.1412,0.1053,-0.9658,3.15,-5.39,-1.409
1772978879547.916,-0.1436,0.1044,-0.9654,2.966,-5.259,-1.47
1772978879547.916,-0.1406,0.1044,-0.9658,3.071,-5.661,-1.54
1772978879547.916,-0.1421,0.1037,-0.969,3.062,-5.565,-1.558
1772978879547.916,-0.1424,0.1053,-0.9681,3.019,-5.53,-1.61
1772978879547.916,-0.1419,0.1035,-0.9656,2.958,-5.793,-1.549
1772978879547.916,-0.143,0.1035,-0.9678,3.071,-5.819,-1.706
1772978879547.916,-0.1434,0.1021,-0.9686,2.817,-5.696,-1.663
1772978879547.916,-0.1419,0.1041,-0.9682,2.879,-5.714,-1.759
1772978879563.2148,-0.1414,0.1041,-0.9654,2.975,-5.688,-1.837
1772978879563.2148,-0.1436,0.1029,-0.9678,2.905,-5.442,-1.75
1772978879563.2148,-0.1429,0.1027,-0.9691,2.809,-5.364,-1.732
1772978879563.2148,-0.1446,0.1049,-0.9661,2.826,-5.372,-1.698
1772978879563.2148,-0.1435,0.1042,-0.9625,2.634,-5.416,-1.759
1772978879563.2148,-0.1421,0.1051,-0.9647,2.564,-5.285,-1.96
1772978879563.2148,-0.1409,0.1037,-0.9635,2.572,-5.504,-1.951
1772978879563.2148,-0.144,0.1065,-0.9635,2.564,-5.407,-2.091
1772978879563.2148,-0.145,0.1027,-0.9636,2.581,-5.259,-1.907
1772978879563.2148,-0.1448,0.1059,-0.9647,2.555,-5.25,-1.916
1772978879563.2148,-0.1423,0.1042,-0.9628,2.564,-5.215,-2.013
1772978879563.2148,-0.1463,0.1035,-0.9609,2.502,-5.206,-1.925
1772978879563.2148,-0.1423,0.1046,-0.9618,2.511,-5.259,-2.047
1772978879578.7905,-0.1426,0.1044,-0.9618,2.336,-5.197,-1.986
1772978879578.7905,-0.1448,0.1063,-0.9595,2.502,-4.97,-1.907
1772978879578.7905,-0.1435,0.1042,-0.9621,2.45,-4.952,-1.873
1772978879578.7905,-0.1437,0.1042,-0.9592,2.362,-4.918,-1.907
1772978879578.7905,-0.1454,0.1014,-0.9624,2.31,-5.154,-2.056
1772978879578.7905,-0.144,0.1041,-0.9616,2.188,-4.524,-1.925
1772978879578.7905,-0.144,0.1032,-0.9619,2.371,-4.541,-1.759
1772978879578.7905,-0.1443,0.1051,-0.9602,2.188,-4.349,-1.68
1772978879578.7905,-0.1421,0.1039,-0.9572,2.266,-4.436,-1.741
1772978879578.7905,-0.1434,0.1046,-0.9609,2.651,-4.428,-1.82
1772978879578.7905,-0.1469,0.1052,-0.9612,2.59,-4.401,-1.811
1772978879578.7905,-0.1454,0.1031,-0.961,2.433,-4.191,-1.794
1772978879578.7905,-0.1479,0.1022,-0.9599,2.52,-3.999,-1.645
1772978879594.8699,-0.1454,0.1023,-0.9617,2.669,-3.684,-1.759
1772978879594.8699,-0.1443,0.1042,-0.961,2.459,-3.754,-1.768
1772978879594.8699,-0.1424,0.1036,-0.962,2.564,-3.841,-1.689
1772978879594.8699,-0.1451,0.1028,-0.9612,2.643,-3.938,-1.846
1772978879594.8699,-0.1458,0.1017,-0.9614,2.616,-3.596,-1.505
1772978879594.8699,-0.1436,0.1052,-0.9626,2.87,-3.894,-1.225
1772978879594.8699,-0.1437,0.1036,-0.9616,2.686,-3.701,-1.61
1772978879594.8699,-0.1446,0.1028,-0.9623,2.783,-3.675,-1.54
1772978879594.8699,-0.1464,0.1037,-0.9653,2.669,-3.596,-1.251
1772978879594.8699,-0.1455,0.1021,-0.964,2.817,-3.447,-1.347
1772978879594.8699,-0.1454,0.1025,-0.9623,2.616,-3.605,-1.549
1772978879594.8699,-0.1424,0.1013,-0.9661,2.809,-3.666,-1.321
1772978879594.8699,-0.1437,0.1019,-0.9679,2.975,-3.587,-1.208
1772978879610.6067,-0.1429,0.1033,-0.9643,2.66,-3.518,-1.225
1772978879610.6067,-0.1426,0.1047,-0.9672,2.791,-3.675,-1.435
1772978879610.6067,-0.1445,0.104,-0.9663,2.861,-3.789,-1.426
1772978879610.6067,-0.1457,0.1044,-0.9697,3.124,-3.754,-1.383
1772978879610.6067,-0.1452,0.1063,-0.9704,3.054,-3.745,-1.103
1772978879610.6067,-0.1441,0.1084,-0.9697,3.054,-3.955,-1.391
1772978879610.6067,-0.1425,0.1071,-0.968,2.844,-3.99,-1.356
1772978879610.6067,-0.1437,0.1062,-0.9701,2.984,-4.025,-1.444
1772978879610.6067,-0.1456,0.1083,-0.9734,3.089,-3.938,-1.435
1772978879610.6067,-0.1449,0.1077,-0.9723,3.027,-4.515,-1.286
1772978879610.6067,-0.144,0.1091,-0.9723,2.958,-4.463,-1.356
1772978879610.6067,-0.1468,0.1108,-0.9731,3.106,-4.489,-1.365
1772978879626.6392,-0.1453,0.1085,-0.9783,3.098,-4.638,-1.479
1772978879626.6392,-0.1437,0.1072,-0.9744,3.141,-4.874,-1.496
1772978879626.6392,-0.1459,0.1079,-0.9756,3.141,-5.162,-1.68
1772978879626.6392,-0.1458,0.111,-0.9772,3.351,-5.478,-1.549
1772978879626.6392,-0.1465,0.1085,-0.9744,3.019,-5.565,-1.505
1772978879626.6392,-0.1437,0.1097,-0.9741,3.141,-5.556,-1.732
1772978879626.6392,-0.1451,0.1094,-0.9746,3.106,-5.635,-1.689
1772978879626.6392,-0.1454,0.1093,-0.9714,3.132,-6.072,-1.829
1772978879626.6392,-0.1459,0.1107,-0.9745,3.264,-6.151,-1.969
1772978879626.6392,-0.1451,0.1093,-0.9726,3.334,-6.344,-1.951
1772978879626.6392,-0.1448,0.1092,-0.9743,2.993,-6.396,-1.916
1772978879626.6392,-0.1462,0.1119,-0.9701,3.308,-6.729,-1.89
1772978879626.6392,-0.1443,0.111,-0.9708,3.351,-6.93,-1.969
1772978879642.965,-0.1449,0.11,-0.9695,3.106,-6.965,-1.846
1772978879642.965,-0.1457,0.1116,-0.9683,2.993,-6.904,-2.039
1772978879642.965,-0.1455,0.1095,-0.967,3.089,-6.86,-2.24
1772978879642.965,-0.1474,0.1113,-0.964,3.167,-6.991,-2.31
1772978879642.965,-0.1459,0.1092,-0.967,2.993,-7.254,-2.345
1772978879642.965,-0.1463,0.1106,-0.9653,3.098,-7.122,-2.223
1772978879642.965,-0.1474,0.1092,-0.9627,2.94,-7.263,-2.354
1772978879642.965,-0.1451,0.1054,-0.9659,2.73,-7.289,-2.275
1772978879642.965,-0.1468,0.1074,-0.962,2.704,-7.271,-2.45
1772978879642.965,-0.1439,0.106,-0.9596,2.678,-7.385,-2.555
1772978879642.965,-0.1455,0.1037,-0.9599,2.704,-7.105,-2.581
1772978879642.965,-0.1453,0.1032,-0.9598,2.476,-7.376,-2.607
1772978879642.965,-0.1468,0.1015,-0.96,2.38,-7.192,-2.441
1772978879658.4285,-0.1433,0.1035,-0.9613,2.538,-7.525,-2.52
1772978879658.4285,-0.1429,0.1016,-0.9633,2.538,-7.341,-2.257
1772978879658.4285,-0.1427,0.1012,-0.9593,2.502,-7.026,-2.31
1772978879658.4285,-0.1415,0.0986,-0.9567,2.643,-7.184,-2.004
1772978879658.4285,-0.1405,0.0997,-0.9609,2.275,-6.799,-2.03
1772978879658.4285,-0.1428,0.0986,-0.96,2.292,-6.685,-1.925
1772978879658.4285,-0.142,0.0982,-0.9582,2.161,-6.492,-1.732
1772978879658.4285,-0.1433,0.0963,-0.9607,2.109,-6.58,-1.881
1772978879658.4285,-0.1424,0.0957,-0.9625,2.266,-6.641,-1.934
1772978879658.4285,-0.1421,0.0952,-0.9623,2.091,-6.151,-1.584
1772978879658.4285,-0.1423,0.0947,-0.9614,2.24,-6.37,-1.61
1772978879658.4285,-0.1433,0.0961,-0.964,2.354,-6.221,-1.391
1772978879658.4285,-0.1444,0.0986,-0.9667,2.231,-6.116,-1.426
1772978879673.5378,-0.1412,0.0989,-0.9664,2.196,-6.125,-1.426
1772978879673.5378,-0.1408,0.0993,-0.9649,2.292,-6.23,-1.286
1772978879673.5378,-0.14,0.1,-0.966,2.301,-6.09,-1.383
1772978879673.5378,-0.139,0.1012,-0.9678,2.275,-5.871,-1.234
1772978879673.5378,-0.1401,0.1025,-0.9674,2.389,-5.968,-1.137
1772978879673.5378,-0.1415,0.1035,-0.97,2.415,-5.994,-1.26
1772978879673.5378,-0.14,0.1045,-0.9709,2.433,-5.784,-1.225
1772978879673.5378,-0.1391,0.104,-0.9698,2.546,-5.635,-1.032
1772978879673.5378,-0.1394,0.1047,-0.9714,2.433,-5.617,-1.146
1772978879673.5378,-0.1405,0.1049,-0.9705,2.476,-5.705,-1.181
1772978879673.5378,-0.142,0.1063,-0.9723,2.564,-5.723,-1.155
1772978879673.5378,-0.1394,0.1082,-0.9701,2.502,-5.617,-1.173
1772978879689.4998,-0.1414,0.1103,-0.9684,2.529,-5.565,-1.137
1772978879689.4998,-0.1396,0.1107,-0.9717,2.712,-5.6,-1.391
1772978879689.4998,-0.1381,0.1105,-0.9677,2.66,-5.67,-1.47
1772978879689.4998,-0.1424,0.1121,-0.969,2.686,-5.513,-1.706
1772978879689.4998,-0.1412,0.1113,-0.9662,2.686,-5.749,-1.82
1772978879689.4998,-0.1402,0.1105,-0.9687,2.748,-5.696,-1.802
1772978879689.4998,-0.1401,0.1096,-0.9701,2.59,-5.714,-1.907
1772978879689.4998,-0.1398,0.1103,-0.966,2.66,-5.679,-2.126
1772978879689.4998,-0.143,0.1088,-0.9668,2.686,-5.513,-2.231
1772978879689.4998,-0.1401,0.1096,-0.967,2.8,-5.644,-2.074
1772978879689.4998,-0.1381,0.1086,-0.9655,2.686,-5.766,-2.24
1772978879689.4998,-0.1407,0.11,-0.967,2.8,-5.469,-2.144
1772978879689.4998,-0.141,0.1094,-0.9625,2.704,-5.513,-2.056
1772978879705.1616,-0.1398,0.1077,-0.9624,2.643,-5.311,-1.89
1772978879705.1616,-0.14,0.1067,-0.9643,2.441,-5.329,-2.118
1772978879705.1616,-0.1405,0.1064,-0.9646,2.397,-5.372,-2.03
1772978879705.1616,-0.1393,0.1064,-0.9611,2.459,-5.556,-2.047
1772978879705.1616,-0.1385,0.107,-0.9645,2.555,-5.442,-2.074
1772978879705.1616,-0.1369,0.1044,-0.9625,2.485,-5.574,-2.144
1772978879705.1616,-0.1389,0.1042,-0.9618,2.441,-5.425,-1.811
1772978879705.1616,-0.1382,0.1033,-0.9623,2.45,-5.39,-1.759
1772978879705.1616,-0.1388,0.1039,-0.9616,2.362,-5.206,-1.706
1772978879705.1616,-0.1411,0.1028,-0.962,2.257,-5.329,-1.654
1772978879705.1616,-0.1399,0.1025,-0.9646,2.389,-5.32,-1.514
1772978879705.1616,-0.1399,0.1032,-0.9631,2.38,-5.171,-1.601
1772978879705.1616,-0.1396,0.1021,-0.9618,2.424,-5.451,-1.417
1772978879720.7817,-0.1393,0.1026,-0.9648,2.354,-5.215,-1.645
1772978879720.7817,-0.1407,0.1003,-0.9637,2.196,-5.145,-1.488
1772978879720.7817,-0.142,0.1012,-0.9639,2.188,-5.338,-1.295
1772978879720.7817,-0.1374,0.1019,-0.9643,2.152,-4.935,-1.129
1772978879720.7817,-0.1402,0.0997,-0.9628,2.109,-5.075,-1.164
1772978879720.7817,-0.1407,0.1015,-0.9655,2.214,-5.145,-1.173
1772978879720.7817,-0.1404,0.1027,-0.965,2.126,-4.909,-1.032
1772978879720.7817,-0.1408,0.1023,-0.9633,2.161,-5.058,-0.989
1772978879720.7817,-0.141,0.1018,-0.9651,2.013,-4.97,-0.866
1772978879720.7817,-0.1416,0.1041,-0.9642,2.091,-4.76,-0.805
1772978879720.7817,-0.1437,0.1052,-0.9656,2.301,-4.655,-0.849
1772978879720.7817,-0.1438,0.1034,-0.9633,2.336,-4.576,-0.709
1772978879720.7817,-0.1452,0.1047,-0.9628,2.275,-4.97,-0.726
1772978879736.13,-0.1463,0.1047,-0.9647,2.502,-4.883,-0.849
1772978879736.13,-0.1459,0.1047,-0.9669,2.275,-4.463,-0.752
1772978879736.13,-0.1448,0.1064,-0.967,2.319,-4.375,-0.63
1772978879736.13,-0.1462,0.1042,-0.9653,2.292,-4.025,-0.63
1772978879736.13,-0.1479,0.1045,-0.9672,2.529,-4.279,-0.604
1772978879736.13,-0.1475,0.107,-0.9639,2.459,-4.375,-0.709
1772978879736.13,-0.1493,0.1075,-0.9662,2.459,-4.218,-0.849
1772978879736.13,-0.1496,0.1074,-0.9654,2.24,-4.112,-0.446
1772978879736.13,-0.151,0.1061,-0.969,2.502,-4.043,-0.333
1772978879736.13,-0.1502,0.1091,-0.9665,2.572,-3.692,-0.438
1772978879736.13,-0.1511,0.1074,-0.9675,2.59,-3.692,-0.779
1772978879736.13,-0.1517,0.1074,-0.9655,2.87,-3.85,-0.674
1772978879750.9348,-0.1518,0.1071,-0.9648,2.896,-3.841,-0.542
1772978879750.9348,-0.1539,0.1093,-0.9634,3.071,-3.964,-0.761
1772978879750.9348,-0.1524,0.1095,-0.9654,3.237,-3.824,-0.752
1772978879750.9348,-0.154,0.1113,-0.9664,3.299,-3.692,-0.595
1772978879750.9348,-0.1544,0.11,-0.9633,3.211,-3.421,-0.77
1772978879750.9348,-0.1537,0.1108,-0.9644,3.316,-3.369,-0.595
1772978879750.9348,-0.1545,0.1105,-0.9629,3.386,-3.308,-0.779
1772978879750.9348,-0.154,0.1108,-0.9628,3.369,-3.342,-0.919
1772978879750.9348,-0.1565,0.1107,-0.9645,3.57,-3.351,-0.691
1772978879750.9348,-0.1549,0.1124,-0.9631,3.771,-3.106,-0.7
1772978879750.9348,-0.1559,0.112,-0.9611,3.78,-3.001,-1.067
1772978879750.9348,-0.1565,0.1105,-0.9575,3.902,-2.94,-0.945
1772978879766.73,-0.157,0.1131,-0.9616,3.894,-2.931,-0.761
1772978879766.73,-0.1558,0.1124,-0.9592,3.824,-2.607,-0.682
1772978879766.73,-0.156,0.1129,-0.9573,4.008,-2.459,-1.032
1772978879766.73,-0.1551,0.1108,-0.9551,4.112,-2.406,-1.103
1772978879766.73,-0.154,0.111,-0.9551,4.069,-2.354,-1.295
1772978879766.73,-0.1535,0.1127,-0.9564,4.069,-2.301,-1.19
1772978879766.73,-0.1548,0.1105,-0.9536,4.077,-2.397,-1.365
1772978879766.73,-0.1546,0.1088,-0.9536,4.183,-2.328,-1.522
1772978879766.73,-0.1546,0.1093,-0.9522,4.121,-2.249,-1.33
1772978879766.73,-0.1533,0.1091,-0.9511,4.095,-2.284,-1.365
1772978879766.73,-0.1527,0.1085,-0.9493,4.331,-1.942,-1.251
1772978879766.73,-0.1533,0.1078,-0.9472,4.322,-1.942,-1.593
1772978879766.73,-0.1533,0.1108,-0.9496,4.401,-1.837,-1.479
1772978879782.3872,-0.1527,0.1074,-0.9467,4.2,-1.855,-1.654
1772978879782.3872,-0.1538,0.1073,-0.9444,4.226,-2.021,-1.715
1772978879782.3872,-0.1527,0.1037,-0.9481,4.112,-1.698,-1.558
1772978879782.3872,-0.1528,0.1034,-0.9475,4.077,-1.549,-1.531
1772978879782.3872,-0.1517,0.1057,-0.9471,4.034,-1.514,-1.54
1772978879782.3872,-0.1524,0.1037,-0.9447,3.955,-1.347,-1.627
1772978879782.3872,-0.1496,0.1015,-0.9454,3.833,-1.059,-1.461
1772978879782.3872,-0.1509,0.1017,-0.945,3.815,-1.181,-1.426
1772978879782.3872,-0.151,0.1026,-0.9457,3.797,-1.146,-1.444
1772978879782.3872,-0.1506,0.1036,-0.9479,3.728,-1.356,-1.426
1772978879782.3872,-0.1498,0.1014,-0.9436,3.684,-1.435,-1.321
1772978879782.3872,-0.1484,0.1009,-0.947,3.623,-0.919,-1.374
1772978879798.2395,-0.1507,0.1001,-0.9482,3.631,-0.989,-1.225
1772978879798.2395,-0.1479,0.0991,-0.9505,3.561,-0.963,-1.181
1772978879798.2395,-0.1491,0.0986,-0.9515,3.544,-1.146,-1.339
1772978879798.2395,-0.1466,0.1008,-0.9491,3.386,-1.041,-1.26
1772978879798.2395,-0.148,0.1013,-0.9506,3.325,-0.639,-1.05
1772978879798.2395,-0.1454,0.1,-0.9505,3.404,-0.884,-1.155
1772978879798.2395,-0.1464,0.1,-0.9532,3.377,-0.919,-0.98
1772978879798.2395,-0.1471,0.0978,-0.9531,3.299,-0.91,-1.199
1772978879798.2395,-0.1449,0.1005,-0.9542,3.255,-0.639,-1.173
1772978879798.2395,-0.1435,0.1,-0.9567,3.054,-0.726,-1.19
1772978879798.2395,-0.1427,0.1012,-0.9566,3.054,-0.709,-1.111
1772978879798.2395,-0.1429,0.1019,-0.9568,3.115,-0.77,-1.173
1772978879798.2395,-0.1426,0.1019,-0.9591,2.993,-0.787,-1.032
1772978879814.274,-0.1413,0.1024,-0.9618,2.966,-0.927,-1.103
1772978879814.274,-0.1396,0.102,-0.9627,3.211,-1.19,-1.015
1772978879814.274,-0.1408,0.1023,-0.9641,3.272,-1.383,-0.796
1772978879814.274,-0.1411,0.1037,-0.9662,3.246,-1.383,-0.971
1772978879814.274,-0.1388,0.1038,-0.9698,3.316,-1.593,-1.339
1772978879814.274,-0.1393,0.1032,-0.969,3.229,-1.304,-1.295
1772978879814.274,-0.1382,0.104,-0.9711,3.203,-1.68,-1.024
1772978879814.274,-0.1364,0.1044,-0.9694,3.22,-1.96,-1.085
1772978879814.274,-0.1341,0.1058,-0.972,3.167,-2.179,-1.024
1772978879814.274,-0.1326,0.1044,-0.9726,3.106,-2.266,-1.111
1772978879814.274,-0.1335,0.106,-0.9782,3.132,-2.45,-1.024
1772978879814.274,-0.1318,0.1061,-0.9787,3.071,-2.616,-1.251
1772978879814.274,-0.1314,0.1061,-0.9777,3.115,-2.756,-1.111
1772978879830.8865,-0.1297,0.1039,-0.9792,3.316,-3.167,-1.26
1772978879830.8865,-0.1311,0.1089,-0.9794,3.299,-3.587,-1.549
1772978879830.8865,-0.1297,0.1074,-0.979,3.036,-3.544,-1.391
1772978879830.8865,-0.1265,0.1071,-0.9819,3.272,-3.815,-1.505
1772978879830.8865,-0.127,0.1062,-0.9798,3.229,-3.894,-1.199
1772978879830.8865,-0.1254,0.1077,-0.983,3.264,-4.226,-1.269
1772978879830.8865,-0.1271,0.1048,-0.9823,3.404,-4.393,-1.435
1772978879830.8865,-0.1246,0.1046,-0.9841,3.5,-4.769,-1.417
1772978879830.8865,-0.1246,0.1063,-0.9845,3.491,-5.136,-1.698
1772978879830.8865,-0.1254,0.1051,-0.9838,3.57,-5.311,-1.391
1772978879830.8865,-0.1239,0.1052,-0.9845,3.456,-5.416,-1.488
1772978879830.8865,-0.1233,0.1052,-0.9831,3.351,-5.574,-1.645
1772978879830.8865,-0.1237,0.1055,-0.9822,3.237,-5.635,-1.636
1772978879830.8865,-0.1224,0.105,-0.9808,3.369,-5.801,-1.558
1772978879846.6577,-0.1214,0.1055,-0.9816,3.281,-6.16,-1.654
1772978879846.6577,-0.1236,0.1056,-0.985,3.369,-6.204,-1.365
1772978879846.6577,-0.1225,0.1074,-0.9856,3.211,-6.186,-1.435
1772978879846.6577,-0.1203,0.1035,-0.982,3.36,-6.335,-1.619
1772978879846.6577,-0.1194,0.106,-0.9804,3.272,-6.711,-1.522
1772978879846.6577,-0.1233,0.1041,-0.9811,3.132,-6.834,-1.514
1772978879846.6577,-0.1225,0.1054,-0.9793,2.984,-6.965,-1.627
1772978879846.6577,-0.1224,0.1042,-0.9813,2.826,-7.236,-1.698
1772978879846.6577,-0.1222,0.1054,-0.98,2.984,-7.516,-1.934
1772978879846.6577,-0.1229,0.1019,-0.9797,3.027,-7.656,-1.785
1772978879846.6577,-0.1236,0.1028,-0.9797,3.054,-7.49,-1.645
1772978879846.6577,-0.123,0.1021,-0.9805,2.774,-7.455,-1.837
1772978879846.6577,-0.1243,0.1025,-0.9773,2.686,-7.411,-1.82
1772978879862.4365,-0.123,0.1049,-0.977,2.686,-7.56,-1.907
1772978879862.4365,-0.1235,0.1051,-0.9781,2.467,-7.665,-1.942
1772978879862.4365,-0.1247,0.1053,-0.9745,2.415,-7.455,-1.785
1772978879862.4365,-0.1253,0.1054,-0.9733,2.45,-7.42,-1.785
1772978879862.4365,-0.1261,0.1039,-0.9732,2.397,-7.551,-1.873
1772978879862.4365,-0.128,0.1073,-0.9747,2.188,-7.656,-1.864
1772978879862.4365,-0.1261,0.1035,-0.974,2.345,-7.586,-2.03
1772978879862.4365,-0.1282,0.103,-0.9737,2.161,-7.263,-1.899
1772978879862.4365,-0.1274,0.1053,-0.9726,2.03,-7.053,-1.724
1772978879862.4365,-0.1283,0.1055,-0.9728,1.837,-6.912,-1.776
1772978879862.4365,-0.129,0.1048,-0.9743,2.065,-7.044,-1.907
1772978879862.4365,-0.1314,0.1058,-0.9721,1.82,-7.21,-1.732
1772978879877.937,-0.1316,0.1065,-0.9772,2.03,-7.053,-1.636
1772978879877.937,-0.1329,0.1039,-0.9731,2.021,-7.105,-1.855
1772978879877.937,-0.1339,0.1035,-0.9716,2.056,-6.878,-1.759
1772978879877.937,-0.1343,0.1057,-0.972,1.837,-6.772,-1.619
1772978879877.937,-0.1347,0.1049,-0.9715,1.811,-6.781,-1.706
1772978879877.937,-0.1366,0.1071,-0.9722,1.873,-6.536,-1.636
1772978879877.937,-0.1384,0.1071,-0.9717,1.934,-6.291,-1.75
1772978879877.937,-0.1368,0.1077,-0.9703,1.794,-6.536,-1.654
1772978879877.937,-0.1385,0.1067,-0.97,1.89,-6.291,-1.636
1772978879877.937,-0.1383,0.1079,-0.97,2.091,-6.274,-1.593
1772978879877.937,-0.1393,0.1049,-0.9698,1.995,-6.178,-1.584
1772978879877.937,-0.1427,0.1086,-0.9707,2.118,-5.941,-1.663
1772978879877.937,-0.1416,0.1091,-0.9718,1.907,-6.011,-1.785
1772978879893.3533,-0.141,0.1072,-0.9712,2.083,-5.862,-1.75
1772978879893.3533,-0.1437,0.1078,-0.9706,2.065,-5.985,-1.724
1772978879893.3533,-0.1413,0.1071,-0.9686,1.855,-6.003,-1.671
1772978879893.3533,-0.1424,0.1055,-0.9698,2.179,-6.029,-1.409
1772978879893.3533,-0.1459,0.1086,-0.9715,2.161,-5.513,-1.356
1772978879893.3533,-0.1435,0.106,-0.9694,2.188,-5.889,-1.759
1772978879893.3533,-0.1454,0.1063,-0.9704,1.942,-5.827,-1.75
1772978879893.3533,-0.1446,0.1053,-0.9697,2.126,-5.845,-1.75
1772978879893.3533,-0.1487,0.107,-0.9711,2.1,-5.504,-1.61
1772978879893.3533,-0.1468,0.108,-0.9684,2.109,-5.661,-1.794
1772978879893.3533,-0.1462,0.1064,-0.9709,2.161,-5.582,-1.444
1772978879893.3533,-0.1476,0.1062,-0.9689,2.284,-5.338,-1.295
1772978879908.43,-0.1468,0.1057,-0.9671,2.354,-5.215,-1.391
1772978879908.43,-0.1464,0.1086,-0.9664,2.292,-5.18,-1.496
1772978879908.43,-0.1474,0.1061,-0.9685,2.109,-5.268,-1.365
1772978879908.43,-0.1471,0.1079,-0.9701,2.161,-5.215,-1.461
1772978879908.43,-0.1465,0.1061,-0.9665,2.109,-5.294,-1.444
1772978879908.43,-0.1474,0.1063,-0.9668,2.494,-5.329,-1.225
1772978879908.43,-0.1472,0.1063,-0.9683,2.397,-5.303,-1.278
1772978879908.43,-0.1508,0.1052,-0.9677,2.572,-5.154,-1.286
1772978879908.43,-0.1491,0.1067,-0.9654,2.607,-5.014,-1.225
1772978879908.43,-0.1482,0.108,-0.9631,2.52,-4.865,-1.409
1772978879908.43,-0.1476,0.1075,-0.9621,2.564,-5.066,-1.566
1772978879908.43,-0.1469,0.1047,-0.9628,2.826,-5.084,-1.575
1772978879908.43,-0.1485,0.1086,-0.9627,2.835,-4.804,-1.111
1772978879924.904,-0.1493,0.1071,-0.9622,2.73,-4.541,-1.242
1772978879924.904,-0.1468,0.1071,-0.9634,2.678,-4.419,-1.129
1772978879924.904,-0.1482,0.1072,-0.961,2.721,-4.524,-1.47
1772978879924.904,-0.1471,0.1058,-0.9611,2.651,-4.777,-1.452
1772978879924.904,-0.1491,0.1052,-0.9637,2.756,-4.471,-1.452
1772978879924.904,-0.1499,0.1066,-0.9627,2.8,-4.515,-1.444
1772978879924.904,-0.1461,0.1081,-0.9605,2.975,-4.489,-1.208
1772978879924.904,-0.1451,0.1053,-0.9589,2.817,-4.218,-1.146
1772978879924.904,-0.146,0.106,-0.9592,2.826,-4.147,-1.409
1772978879924.904,-0.146,0.107,-0.958,3.045,-4.655,-1.4
1772978879924.904,-0.148,0.1071,-0.9612,2.975,-4.489,-1.383
1772978879924.904,-0.1446,0.1059,-0.9603,3.027,-4.235,-1.199
1772978879924.904,-0.1466,0.1093,-0.962,3.08,-4.375,-1.47
1772978879940.3508,-0.1463,0.1088,-0.9595,3.124,-4.244,-1.417
1772978879940.3508,-0.1435,0.1055,-0.9602,3.071,-3.964,-1.356
1772978879940.3508,-0.1438,0.1064,-0.9606,3.027,-3.876,-1.461
1772978879940.3508,-0.1444,0.1061,-0.9606,3.159,-3.876,-1.269
1772978879940.3508,-0.1435,0.1051,-0.9597,3.115,-3.649,-1.33
1772978879940.3508,-0.1433,0.1071,-0.9617,3.089,-3.78,-1.444
1772978879940.3508,-0.143,0.1053,-0.9575,3.106,-3.745,-1.593
1772978879940.3508,-0.1405,0.1056,-0.9592,3.22,-3.684,-1.409
1772978879940.3508,-0.1419,0.1047,-0.961,3.22,-3.684,-1.391
1772978879940.3508,-0.1407,0.1049,-0.9622,3.062,-3.579,-1.444
1772978879940.3508,-0.1423,0.1071,-0.9626,3.246,-3.64,-1.496
1772978879940.3508,-0.1427,0.1036,-0.9619,3.194,-3.719,-1.452
1772978879940.3508,-0.1407,0.1052,-0.9611,3.106,-3.728,-1.365
1772978879955.9675,-0.1389,0.105,-0.9628,3.237,-3.658,-1.461
1772978879955.9675,-0.1408,0.1051,-0.9595,3.229,-3.623,-1.391
1772978879955.9675,-0.139,0.1046,-0.9643,2.993,-3.596,-1.435
1772978879955.9675,-0.1403,0.1028,-0.9606,2.896,-3.509,-1.566
1772978879955.9675,-0.1413,0.1072,-0.9606,3.272,-3.649,-1.452
1772978879955.9675,-0.1395,0.1041,-0.9618,3.185,-3.623,-1.155
1772978879955.9675,-0.1401,0.1039,-0.9639,3.027,-3.692,-1.435
1772978879955.9675,-0.1394,0.1052,-0.9646,2.949,-3.815,-1.208
1772978879955.9675,-0.1366,0.1052,-0.9656,3.054,-3.876,-1.391
1772978879955.9675,-0.1389,0.1044,-0.9654,3.019,-3.658,-1.374
1772978879955.9675,-0.1378,0.1042,-0.9642,2.975,-3.675,-1.26
1772978879955.9675,-0.1364,0.1041,-0.9631,2.94,-3.614,-1.391
1772978879971.713,-0.1376,0.1062,-0.9651,2.879,-3.92,-1.181
1772978879971.713,-0.138,0.1069,-0.9645,2.844,-3.833,-1.295
1772978879971.713,-0.1389,0.105,-0.9636,2.984,-3.946,-1.278
1772978879971.713,-0.137,0.1075,-0.9651,2.949,-3.92,-1.278
1772978879971.713,-0.1386,0.1088,-0.9671,2.695,-3.99,-1.251
1772978879971.713,-0.1364,0.1099,-0.967,2.879,-4.305,-1.111
1772978879971.713,-0.1385,0.1102,-0.9648,2.704,-4.2,-1.278
1772978879971.713,-0.1349,0.1091,-0.9667,2.774,-4.174,-1.225
1772978879971.713,-0.1352,0.1075,-0.9669,3.027,-4.174,-1.216
1772978879971.713,-0.1365,0.1071,-0.9672,2.853,-4.428,-1.321
1772978879971.713,-0.1359,0.1081,-0.9665,2.993,-4.567,-1.356
1772978879971.713,-0.1352,0.1083,-0.9657,3.062,-4.41,-1.312
1772978879971.713,-0.1359,0.1086,-0.9667,3.036,-4.34,-1.374
1772978879987.1714,-0.137,0.1086,-0.969,2.966,-4.646,-1.321
1772978879987.1714,-0.1354,0.1052,-0.9708,2.984,-4.725,-1.26
1772978879987.1714,-0.1346,0.106,-0.9687,2.905,-4.935,-1.4
1772978879987.1714,-0.1335,0.1066,-0.9703,2.835,-5.189,-1.522
1772978879987.1714,-0.1328,0.1074,-0.9718,2.914,-5.014,-1.522
1772978879987.1714,-0.1352,0.1075,-0.9716,2.993,-5.285,-1.26
1772978879987.1714,-0.1334,0.1079,-0.9695,2.817,-5.416,-1.269
1772978879987.1714,-0.1322,0.1067,-0.9694,2.931,-5.451,-1.627
1772978879987.1714,-0.1329,0.1078,-0.9726,2.669,-5.548,-1.452
1772978879987.1714,-0.1315,0.1057,-0.9733,2.739,-5.793,-1.654
1772978879987.1714,-0.1302,0.1069,-0.9742,2.958,-5.731,-1.837
1772978879987.1714,-0.1319,0.1066,-0.974,3.036,-6.003,-1.68
1772978880003.1035,-0.1307,0.1062,-0.9747,2.809,-5.985,-1.522
1772978880003.1035,-0.1347,0.1055,-0.9738,2.914,-5.793,-1.531
1772978880003.1035,-0.1306,0.1045,-0.9764,2.756,-5.81,-1.426
1772978880003.1035,-0.1311,0.1074,-0.9772,2.686,-6.317,-1.584
1772978880003.1035,-0.1308,0.1066,-0.9723,2.765,-6.449,-1.75
1772978880003.1035,-0.1322,0.1077,-0.9721,2.835,-6.44,-1.942
1772978880003.1035,-0.1327,0.1068,-0.9752,2.774,-6.589,-1.785
1772978880003.1035,-0.1313,0.1056,-0.9729,2.572,-6.571,-1.706
1772978880003.1035,-0.1301,0.1053,-0.9735,2.529,-6.633,-1.566
1772978880003.1035,-0.1313,0.1054,-0.9742,2.599,-6.729,-1.68
1772978880003.1035,-0.1326,0.1076,-0.971,2.73,-6.694,-1.619
1772978880003.1035,-0.1318,0.1055,-0.9719,2.599,-6.947,-1.864
1772978880003.1035,-0.1335,0.1047,-0.9729,2.73,-7.131,-1.995
1772978880018.8833,-0.132,0.103,-0.9735,2.599,-7.035,-1.82
1772978880018.8833,-0.133,0.1046,-0.9709,2.502,-7.009,-1.899
1772978880018.8833,-0.1346,0.1044,-0.9715,2.572,-7.07,-1.829
1772978880018.8833,-0.136,0.1042,-0.9698,2.555,-7.341,-1.986
1772978880018.8833,-0.1344,0.1063,-0.9714,2.441,-7.394,-2.021
1772978880018.8833,-0.1347,0.1036,-0.9712,2.494,-7.455,-1.759
1772978880018.8833,-0.1358,0.105,-0.9703,2.039,-7.271,-1.864
1772978880018.8833,-0.1358,0.104,-0.9694,2.047,-7.228,-1.89
1772978880018.8833,-0.1352,0.1033,-0.9706,2.24,-7.088,-1.881
1772978880018.8833,-0.1353,0.1038,-0.9675,2.336,-7.254,-1.907
1772978880018.8833,-0.1366,0.1051,-0.97,2.371,-7.236,-1.951
1772978880018.8833,-0.1371,0.1047,-0.967,2.109,-7.394,-1.864
1772978880018.8833,-0.1389,0.1036,-0.9686,1.942,-7.315,-1.864
1772978880033.7349,-0.1382,0.1047,-0.9642,1.907,-7.061,-1.768
1772978880033.7349,-0.133,0.1038,-0.9649,2.152,-6.921,-1.873
1772978880033.7349,-0.1379,0.1027,-0.9645,2.135,-7.201,-1.575
1772978880033.7349,-0.1377,0.106,-0.9653,2.083,-6.895,-1.627
1772978880033.7349,-0.1375,0.1031,-0.9653,1.969,-6.947,-1.698
1772978880033.7349,-0.1411,0.1033,-0.963,2.109,-7.105,-1.558
1772978880033.7349,-0.1392,0.1036,-0.9615,2.065,-6.851,-1.785
1772978880033.7349,-0.1382,0.1061,-0.9632,2.109,-6.589,-1.724
1772978880033.7349,-0.1378,0.1048,-0.9634,1.986,-6.668,-1.741
1772978880033.7349,-0.1394,0.1044,-0.9617,2.126,-6.457,-1.645
1772978880033.7349,-0.1396,0.1036,-0.9608,2.231,-6.282,-1.566
1772978880033.7349,-0.1393,0.1063,-0.9615,2.214,-5.985,-1.732
1772978880049.2942,-0.1412,0.1058,-0.9622,2.135,-5.827,-1.47
1772978880049.2942,-0.1401,0.106,-0.9583,2.24,-5.688,-1.304
1772978880049.2942,-0.1404,0.1053,-0.9582,2.188,-5.652,-1.488
1772978880049.2942,-0.1417,0.1047,-0.9592,2.188,-5.442,-1.645
1772978880049.2942,-0.1425,0.1063,-0.9573,2.362,-5.285,-1.356
1772978880049.2942,-0.1398,0.1057,-0.9592,2.354,-5.32,-1.461
1772978880049.2942,-0.1409,0.1071,-0.9579,2.362,-5.11,-1.417
1772978880049.2942,-0.1393,0.1077,-0.9577,2.319,-4.839,-1.251
1772978880049.2942,-0.1416,0.108,-0.9576,2.433,-4.883,-1.505
1772978880049.2942,-0.1409,0.1072,-0.9622,2.319,-4.777,-1.295
1772978880049.2942,-0.1417,0.1065,-0.9604,2.371,-4.506,-1.242
1772978880049.2942,-0.1407,0.1066,-0.9584,2.336,-4.41,-1.208
1772978880049.2942,-0.142,0.1066,-0.9601,2.433,-4.051,-1.54
1772978880064.706,-0.1429,0.106,-0.9598,2.45,-3.999,-1.015
1772978880064.706,-0.1424,0.1066,-0.9593,2.406,-3.806,-1.111
1772978880064.706,-0.1425,0.1076,-0.9609,2.538,-3.587,-1.286
1772978880064.706,-0.1435,0.1055,-0.9593,2.643,-3.64,-1.356
1772978880064.706,-0.1424,0.1075,-0.9609,2.336,-3.701,-1.024
1772978880064.706,-0.1429,0.1088,-0.962,2.538,-3.57,-0.998
1772978880064.706,-0.1418,0.1056,-0.962,2.511,-3.509,-1.199
1772978880064.706,-0.1417,0.1075,-0.9616,2.555,-3.211,-1.146
1772978880064.706,-0.1432,0.1077,-0.9621,2.467,-3.246,-1.173
1772978880064.706,-0.1437,0.109,-0.9628,2.433,-3.342,-1.26
1772978880064.706,-0.1417,0.1062,-0.9635,2.546,-3.342,-1.137
1772978880064.706,-0.1436,0.1067,-0.9622,2.721,-3.22,-1.164
1772978880080.82,-0.1437,0.107,-0.963,2.826,-3.098,-1.208
1772978880080.82,-0.1443,0.1086,-0.9637,2.931,-3.211,-1.391
1772978880080.82,-0.1405,0.1073,-0.9648,2.87,-3.334,-1.19
1772978880080.82,-0.1422,0.1063,-0.9649,2.8,-3.299,-1.076
1772978880080.82,-0.1427,0.1088,-0.9642,2.756,-3.316,-0.963
1772978880080.82,-0.139,0.1054,-0.9671,2.853,-3.447,-1.076
1772978880080.82,-0.143,0.1068,-0.9644,2.879,-3.658,-0.936
1772978880080.82,-0.1416,0.1048,-0.9679,2.984,-3.666,-1.059
1772978880080.82,-0.1402,0.1085,-0.9656,2.984,-3.605,-0.936
1772978880080.82,-0.1414,0.1077,-0.9673,3.027,-3.64,-1.024
1772978880080.82,-0.143,0.109,-0.9664,2.888,-3.911,-0.936
1772978880080.82,-0.1398,0.1076,-0.9663,2.949,-3.973,-0.989
1772978880080.82,-0.1389,0.108,-0.9676,3.08,-3.946,-0.919
1772978880096.4727,-0.1412,0.1074,-0.9665,3.203,-4.445,-0.805
1772978880096.4727,-0.1392,0.1073,-0.9667,3.22,-4.69,-0.989
1772978880096.4727,-0.1402,0.1082,-0.9682,3.211,-4.576,-0.963
1772978880096.4727,-0.138,0.1059,-0.9658,3.176,-4.611,-0.866
1772978880096.4727,-0.1393,0.106,-0.9692,3.159,-4.699,-0.989
1772978880096.4727,-0.1392,0.1067,-0.9683,3.229,-4.883,-0.998
1772978880096.4727,-0.1387,0.1053,-0.9658,3.237,-5.197,-0.84
1772978880096.4727,-0.139,0.1063,-0.9686,2.896,-5.154,-0.936
1772978880096.4727,-0.1382,0.102,-0.967,3.22,-5.162,-1.015
1772978880096.4727,-0.1373,0.1048,-0.967,3.316,-5.556,-1.094
1772978880096.4727,-0.1406,0.1066,-0.9688,3.15,-5.364,-0.954
1772978880096.4727,-0.1383,0.1064,-0.9658,3.141,-5.548,-1.05
1772978880096.4727,-0.1388,0.1054,-0.9676,3.272,-5.574,-1.26
1772978880111.7993,-0.1387,0.1059,-0.9681,3.054,-6.02,-0.927
1772978880111.7993,-0.1383,0.1062,-0.9674,3.054,-6.029,-1.05
1772978880111.7993,-0.1365,0.1055,-0.9639,3.01,-6.125,-1.208
1772978880111.7993,-0.1387,0.1047,-0.9666,3.106,-6.204,-1.321
1772978880111.7993,-0.1359,0.1054,-0.9652,2.94,-6.326,-1.234
1772978880111.7993,-0.1365,0.1028,-0.9644,2.809,-6.554,-1.365
1772978880111.7993,-0.1383,0.1056,-0.9634,3.019,-6.519,-1.321
1772978880111.7993,-0.1375,0.1072,-0.9636,3.124,-6.755,-1.409
1772978880111.7993,-0.1376,0.1068,-0.964,2.896,-6.947,-1.426
1772978880111.7993,-0.1357,0.1038,-0.9626,2.966,-6.694,-1.374
1772978880111.7993,-0.136,0.1054,-0.9647,2.73,-6.527,-1.365
1772978880111.7993,-0.1377,0.105,-0.9623,2.581,-6.659,-1.286
1772978880111.7993,-0.1376,0.1063,-0.9632,2.765,-6.633,-1.54
1772978880127.5293,-0.1374,0.1069,-0.962,2.853,-6.58,-1.374
1772978880127.5293,-0.1395,0.1045,-0.9611,2.66,-6.72,-1.47
1772978880127.5293,-0.1381,0.105,-0.9598,2.853,-6.659,-1.619
1772978880127.5293,-0.1371,0.1072,-0.9609,2.678,-6.562,-1.558
1772978880127.5293,-0.139,0.1067,-0.9627,2.581,-6.353,-1.522
1772978880127.5293,-0.1387,0.1057,-0.9611,2.546,-6.335,-1.566
1772978880127.5293,-0.1374,0.1069,-0.9611,2.538,-6.685,-1.829
1772978880127.5293,-0.1354,0.1061,-0.9604,2.529,-6.598,-1.899
1772978880127.5293,-0.1376,0.1062,-0.9622,2.748,-6.361,-1.855
1772978880127.5293,-0.1376,0.1059,-0.9607,2.555,-6.51,-1.663
1772978880127.5293,-0.1368,0.1066,-0.9645,2.809,-6.099,-1.435
1772978880127.5293,-0.1374,0.1075,-0.9618,2.844,-6.037,-1.698
1772978880143.6372,-0.1384,0.1077,-0.9635,2.616,-6.204,-1.916
1772978880143.6372,-0.1383,0.1069,-0.9608,2.564,-6.186,-1.846
1772978880143.6372,-0.1395,0.1077,-0.9605,2.599,-5.723,-1.732
1772978880143.6372,-0.1389,0.106,-0.9631,2.66,-5.793,-1.654
1772978880143.6372,-0.1373,0.1072,-0.9647,2.555,-5.836,-1.663
1772978880143.6372,-0.1383,0.1074,-0.962,2.581,-5.871,-2.196
1772978880143.6372,-0.1359,0.1094,-0.9659,2.546,-5.74,-2.004
1772978880143.6372,-0.1363,0.1082,-0.9645,2.59,-5.617,-1.732
1772978880143.6372,-0.1376,0.1087,-0.9666,2.59,-5.53,-1.846
1772978880143.6372,-0.136,0.1086,-0.9665,2.896,-5.565,-1.61
1772978880143.6372,-0.1334,0.1093,-0.9665,2.984,-5.416,-1.54
1772978880143.6372,-0.1346,0.1066,-0.9658,2.984,-5.407,-1.61
1772978880143.6372,-0.1373,0.107,-0.9684,2.686,-5.276,-1.75
1772978880159.331,-0.1345,0.1071,-0.9687,2.853,-5.276,-1.75
1772978880159.331,-0.1356,0.1071,-0.9661,2.748,-5.469,-1.741
1772978880159.331,-0.1366,0.1066,-0.971,2.896,-5.539,-1.593
1772978880159.331,-0.1363,0.1088,-0.9698,2.949,-5.136,-1.383
1772978880159.331,-0.1358,0.1105,-0.9734,3.027,-5.136,-1.68
1772978880159.331,-0.1367,0.1078,-0.9712,2.853,-5.232,-1.286
1772978880159.331,-0.1371,0.1072,-0.9692,3.027,-5.338,-1.654
1772978880159.331,-0.136,0.107,-0.9703,3.001,-5.119,-1.514
1772978880159.331,-0.1349,0.108,-0.9693,2.817,-5.18,-1.295
1772978880159.331,-0.1355,0.1091,-0.9709,2.861,-5.145,-1.452
1772978880159.331,-0.1346,0.1072,-0.9712,2.817,-5.294,-1.339
1772978880159.331,-0.1343,0.1085,-0.9697,2.993,-5.154,-1.461
1772978880159.331,-0.1359,0.1085,-0.972,2.87,-4.961,-1.549
1772978880174.7708,-0.1345,0.1083,-0.9729,2.975,-5.11,-1.47
1772978880174.7708,-0.1375,0.1067,-0.9712,2.896,-5.346,-1.409
1772978880174.7708,-0.1356,0.1089,-0.9711,3.08,-5.189,-1.383
1772978880174.7708,-0.1366,0.1067,-0.97,3.098,-5.18,-1.321
1772978880174.7708,-0.1363,0.1066,-0.97,2.984,-5.189,-1.409
1772978880174.7708,-0.1363,0.1086,-0.9723,3.071,-5.539,-1.444
1772978880174.7708,-0.1374,0.1076,-0.969,3.132,-5.259,-1.4
1772978880174.7708,-0.1367,0.1048,-0.9676,3.08,-5.145,-1.278
1772978880174.7708,-0.1375,0.1054,-0.97,3.115,-5.005,-1.356
1772978880174.7708,-0.138,0.1082,-0.9704,3.001,-5.066,-1.103
1772978880174.7708,-0.1386,0.1071,-0.9674,3.141,-5.232,-1.173
1772978880174.7708,-0.1365,0.1059,-0.9687,3.316,-5.294,-1.208
1772978880174.7708,-0.1369,0.1067,-0.9683,3.167,-5.136,-0.998
1772978880190.8955,-0.1354,0.1067,-0.9676,3.027,-4.961,-1.05
1772978880190.8955,-0.1369,0.1048,-0.9707,3.246,-5.162,-1.181
1772978880190.8955,-0.1363,0.1072,-0.9699,3.194,-5.022,-1.225
1772978880190.8955,-0.1391,0.1061,-0.9671,3.071,-5.25,-1.199
1772978880190.8955,-0.1369,0.1074,-0.9655,3.237,-5.04,-1.278
1772978880190.8955,-0.1368,0.1055,-0.9673,3.272,-5.084,-1.251
1772978880190.8955,-0.1395,0.1036,-0.9688,3.211,-5.162,-0.98
1772978880190.8955,-0.1396,0.1044,-0.9676,3.237,-5.058,-0.936
1772978880190.8955,-0.1394,0.1064,-0.9654,3.229,-5.066,-0.98
1772978880190.8955,-0.1387,0.106,-0.9676,3.08,-4.874,-1.076
1772978880190.8955,-0.1368,0.106,-0.9649,3.194,-4.952,-1.094
1772978880190.8955,-0.1377,0.1042,-0.9643,3.106,-5.049,-0.892
1772978880190.8955,-0.1352,0.1052,-0.9656,3.299,-4.681,-1.208
1772978880206.0537,-0.1398,0.1057,-0.9633,3.159,-4.515,-1.199
1772978880206.0537,-0.1412,0.1051,-0.9638,3.132,-4.27,-1.278
1772978880206.0537,-0.1401,0.1067,-0.9642,3.281,-4.585,-1.164
1772978880206.0537,-0.1382,0.1045,-0.9635,3.089,-4.55,-1.137
1772978880206.0537,-0.1387,0.1065,-0.9657,3.316,-4.611,-1.076
1772978880206.0537,-0.1409,0.1061,-0.9647,3.08,-4.55,-1.19
1772978880206.0537,-0.1406,0.1058,-0.9634,3.062,-4.401,-1.4
1772978880206.0537,-0.139,0.1047,-0.9623,3.369,-4.567,-1.461
1772978880206.0537,-0.1428,0.1047,-0.9622,3.054,-4.384,-1.312
1772978880206.0537,-0.1398,0.1057,-0.9642,2.905,-4.314,-1.304
1772978880206.0537,-0.1384,0.1051,-0.9637,2.853,-4.594,-1.33
1772978880206.0537,-0.1373,0.1041,-0.9639,3.01,-4.655,-1.47
1772978880221.6057,-0.1416,0.1045,-0.9658,2.896,-4.497,-1.54
1772978880221.6057,-0.141,0.1058,-0.9652,3.106,-4.471,-1.365
1772978880221.6057,-0.1412,0.1052,-0.9632,2.922,-4.305,-1.584
1772978880221.6057,-0.1391,0.1047,-0.9633,2.783,-4.226,-1.619
1772978880221.6057,-0.1409,0.1054,-0.9622,2.721,-4.716,-1.584
1772978880221.6057,-0.1399,0.105,-0.9626,2.835,-4.489,-1.706
1772978880221.6057,-0.1412,0.1041,-0.9609,2.66,-4.401,-1.68
1772978880221.6057,-0.1383,0.108,-0.9623,2.546,-4.393,-1.724
1772978880221.6057,-0.1394,0.1055,-0.9614,2.494,-4.375,-1.759
1772978880221.6057,-0.1394,0.1057,-0.9618,2.424,-4.174,-1.566
1772978880221.6057,-0.1391,0.1055,-0.9638,2.467,-4.454,-1.82
1772978880221.6057,-0.1381,0.1033,-0.9612,2.31,-4.664,-2.021
1772978880237.5906,-0.1384,0.106,-0.9644,2.205,-4.874,-1.907
1772978880237.5906,-0.139,0.1088,-0.9642,2.45,-4.673,-1.663
1772978880237.5906,-0.1412,0.106,-0.9636,2.371,-4.638,-1.741
1772978880237.5906,-0.1385,0.105,-0.9627,2.415,-4.883,-1.934
1772978880237.5906,-0.1397,0.1076,-0.9639,2.292,-4.952,-1.689
1772978880237.5906,-0.1386,0.1082,-0.9627,2.467,-4.883,-1.724
1772978880237.5906,-0.1377,0.1062,-0.9625,2.502,-4.812,-1.811
1772978880237.5906,-0.1379,0.1071,-0.9604,2.144,-4.821,-1.829
1772978880237.5906,-0.1359,0.1078,-0.962,2.362,-4.786,-1.951
1772978880237.5906,-0.1357,0.1068,-0.9622,2.074,-4.786,-1.654
1772978880237.5906,-0.1386,0.1087,-0.963,2.17,-5.11,-1.916
1772978880237.5906,-0.1366,0.1077,-0.9632,2.284,-4.926,-1.969
1772978880237.5906,-0.1367,0.1067,-0.9606,2.179,-4.979,-1.82
1772978880252.929,-0.135,0.1091,-0.9637,2.292,-5.066,-1.855
1772978880252.929,-0.1371,0.1082,-0.9629,2.266,-5.101,-1.934
1772978880252.929,-0.137,0.1074,-0.9648,2.494,-5.311,-1.802
1772978880252.929,-0.1336,0.1087,-0.9611,2.52,-5.241,-1.627
1772978880252.929,-0.1366,0.1089,-0.9631,2.467,-5.014,-1.522
1772978880252.929,-0.1357,0.1097,-0.962,2.328,-5.285,-1.593
1772978880252.929,-0.1343,0.1093,-0.9631,2.38,-5.294,-1.802
1772978880252.929,-0.1358,0.1091,-0.9616,2.494,-5.399,-1.846
1772978880252.929,-0.1348,0.1092,-0.9623,2.345,-5.189,-1.907
1772978880252.929,-0.1367,0.111,-0.96,2.275,-5.145,-1.496
1772978880252.929,-0.1363,0.1083,-0.9629,2.31,-4.961,-1.706
1772978880252.929,-0.1343,0.1094,-0.9612,2.441,-5.049,-1.881
1772978880252.929,-0.1349,0.1097,-0.9628,2.485,-5.232,-1.619
1772978880268.4536,-0.1349,0.1083,-0.9604,2.555,-5.338,-1.514
1772978880268.4536,-0.1341,0.1093,-0.9604,2.634,-5.136,-1.601
1772978880268.4536,-0.1368,0.1071,-0.9631,2.651,-5.268,-1.663
1772978880268.4536,-0.136,0.1074,-0.9622,2.607,-5.294,-1.584
1772978880268.4536,-0.1356,0.1085,-0.9619,2.704,-5.162,-1.496
1772978880268.4536,-0.1384,0.1072,-0.96,2.424,-4.918,-1.663
1772978880268.4536,-0.1371,0.1089,-0.9588,2.467,-5.329,-1.391
1772978880268.4536,-0.1349,0.1093,-0.9637,2.467,-5.18,-1.619
1772978880268.4536,-0.1341,0.1078,-0.9624,2.511,-4.918,-1.54
1772978880268.4536,-0.1357,0.1078,-0.9634,2.625,-5.031,-1.417
1772978880268.4536,-0.1344,0.1071,-0.9628,2.572,-5.25,-1.365
1772978880268.4536,-0.1338,0.1074,-0.9642,2.756,-5.162,-1.409
1772978880284.16,-0.1371,0.1064,-0.9634,2.748,-5.268,-1.278
1772978880284.16,-0.139,0.1076,-0.9647,2.599,-4.874,-1.383
1772978880284.16,-0.1376,0.1068,-0.9648,2.467,-5.154,-1.339
1772978880284.16,-0.1371,0.1072,-0.962,2.616,-4.856,-1.347
1772978880284.16,-0.1355,0.1078,-0.9654,2.686,-5.11,-1.365
1772978880284.16,-0.1373,0.1071,-0.9642,2.59,-5.329,-1.374
1772978880284.16,-0.137,0.1071,-0.9679,2.73,-5.075,-1.383
1772978880284.16,-0.1371,0.1077,-0.9679,2.625,-5.075,-1.426
1772978880284.16,-0.1357,0.1065,-0.965,2.625,-5.022,-1.61
1772978880284.16,-0.1372,0.1073,-0.9694,2.704,-4.751,-1.461
1772978880284.16,-0.1363,0.1068,-0.9672,2.826,-4.996,-1.356
1772978880284.16,-0.1379,0.106,-0.9679,2.87,-5.232,-1.601
1772978880284.16,-0.1383,0.1053,-0.9681,2.765,-5.171,-1.715
1772978880299.332,-0.1382,0.1074,-0.9684,2.922,-5.355,-1.409
1772978880299.332,-0.138,0.1061,-0.9703,2.748,-4.987,-1.33
1772978880299.332,-0.1368,0.1053,-0.9715,2.931,-5.058,-1.242
1772978880299.332,-0.1362,0.1059,-0.9692,2.817,-4.996,-1.094
1772978880299.332,-0.136,0.1083,-0.9709,2.826,-5.04,-1.286
1772978880299.332,-0.1367,0.1073,-0.9702,2.8,-5.058,-1.295
1772978880299.332,-0.1352,0.1063,-0.9693,2.835,-4.979,-1.391
1772978880299.332,-0.1357,0.1044,-0.9694,3.027,-5.285,-1.295
1772978880299.332,-0.1332,0.1064,-0.9725,2.958,-5.381,-1.339
1772978880299.332,-0.1366,0.106,-0.9734,2.783,-5.407,-1.479
1772978880299.332,-0.1362,0.1076,-0.971,2.984,-5.285,-1.479
1772978880299.332,-0.1363,0.1084,-0.9726,3.141,-5.311,-1.365
1772978880299.332,-0.1338,0.1082,-0.9714,3.036,-5.32,-1.479
1772978880315.2402,-0.1351,0.1076,-0.9722,3.071,-5.399,-1.584
1772978880315.2402,-0.1346,0.1074,-0.9723,3.062,-5.303,-1.75
1772978880315.2402,-0.1353,0.1069,-0.9723,3.176,-5.189,-1.4
1772978880315.2402,-0.134,0.1082,-0.9717,3.115,-5.407,-1.461
1772978880315.2402,-0.1368,0.1089,-0.9753,2.791,-5.539,-1.479
1772978880315.2402,-0.1347,0.1078,-0.9705,3.141,-5.617,-1.61
1772978880315.2402,-0.1367,0.1067,-0.9701,3.036,-5.565,-1.566
1772978880315.2402,-0.1347,0.1076,-0.9709,3.062,-5.513,-1.251
1772978880315.2402,-0.1358,0.1058,-0.9721,3.054,-5.766,-1.514
1772978880315.2402,-0.1328,0.1061,-0.9734,3.229,-5.74,-1.715
1772978880315.2402,-0.1358,0.1047,-0.9723,3.01,-5.6,-1.558
1772978880315.2402,-0.137,0.1049,-0.9728,3.132,-5.714,-1.522
1772978880315.2402,-0.1354,0.1063,-0.9724,3.115,-6.02,-1.566
1772978880330.5747,-0.1366,0.1064,-0.9729,2.966,-5.889,-1.601
1772978880330.5747,-0.1382,0.1057,-0.9723,2.94,-5.679,-1.558
1772978880330.5747,-0.1383,0.1046,-0.9693,3.167,-5.784,-1.514
1772978880330.5747,-0.1351,0.1036,-0.9687,3.036,-5.819,-1.706
1772978880330.5747,-0.1374,0.1045,-0.9681,2.984,-5.836,-1.741
1772978880330.5747,-0.1378,0.1056,-0.9679,2.87,-6.151,-1.426
1772978880330.5747,-0.1346,0.1045,-0.9648,2.817,-6.134,-1.522
1772978880330.5747,-0.1345,0.1048,-0.9669,2.748,-6.003,-1.365
1772978880330.5747,-0.1357,0.1061,-0.9677,2.748,-5.933,-1.671
1772978880330.5747,-0.1362,0.105,-0.9673,2.879,-5.976,-1.829
1772978880330.5747,-0.1361,0.1079,-0.9653,2.686,-6.037,-1.698
1772978880330.5747,-0.1366,0.1054,-0.9661,2.599,-5.81,-1.663
1772978880346.0454,-0.1357,0.1039,-0.9672,2.572,-5.74,-1.654
1772978880346.0454,-0.1371,0.1075,-0.9658,2.599,-5.88,-1.82
1772978880346.0454,-0.138,0.1073,-0.967,2.835,-6.02,-1.566
1772978880346.0454,-0.1383,0.1056,-0.9649,2.721,-6.046,-1.698
1772978880346.0454,-0.1374,0.105,-0.9651,2.66,-5.985,-1.566
1772978880346.0454,-0.1367,0.1058,-0.9636,2.669,-5.933,-1.619
1772978880346.0454,-0.1386,0.1063,-0.9625,2.502,-5.845,-1.706
1772978880346.0454,-0.139,0.1066,-0.9649,2.712,-5.81,-1.732
1772978880346.0454,-0.1358,0.1057,-0.9676,2.73,-5.775,-1.706
1772978880346.0454,-0.1339,0.1061,-0.9652,2.783,-5.661,-1.829
1772978880346.0454,-0.1375,0.1066,-0.9677,2.599,-5.626,-1.698
1772978880346.0454,-0.139,0.1053,-0.9643,2.441,-5.74,-1.689
1772978880362.1204,-0.1369,0.1057,-0.9639,2.511,-5.714,-1.549
1772978880362.1204,-0.1383,0.1061,-0.9634,2.389,-6.02,-1.663
1772978880362.1204,-0.1375,0.1061,-0.9621,2.607,-5.758,-1.706
1772978880362.1204,-0.1373,0.1053,-0.9634,2.371,-5.723,-1.479
1772978880362.1204,-0.1379,0.105,-0.9649,2.607,-5.434,-1.54
1772978880362.1204,-0.139,0.1064,-0.9658,2.502,-5.6,-1.593
1772978880362.1204,-0.1359,0.1064,-0.9651,2.441,-5.696,-1.584
1772978880362.1204,-0.1367,0.1061,-0.9651,2.362,-5.539,-1.488
1772978880362.1204,-0.1382,0.1078,-0.9643,2.328,-5.688,-1.295
1772978880362.1204,-0.1369,0.1066,-0.9655,2.651,-5.6,-1.391
1772978880362.1204,-0.1377,0.1074,-0.9647,2.73,-5.504,-1.444
1772978880362.1204,-0.1404,0.1085,-0.9662,2.817,-5.381,-1.295
1772978880362.1204,-0.138,0.1074,-0.9656,2.564,-5.338,-1.374
1772978880377.7344,-0.1383,0.1066,-0.9661,2.529,-5.434,-1.4
1772978880377.7344,-0.1387,0.1058,-0.9654,2.397,-5.381,-1.365
1772978880377.7344,-0.1387,0.1054,-0.9636,2.581,-5.338,-1.505
1772978880377.7344,-0.1363,0.108,-0.9636,2.739,-5.285,-1.312
1772978880377.7344,-0.1363,0.1091,-0.9651,2.704,-5.504,-1.4
1772978880377.7344,-0.1356,0.1071,-0.9639,2.809,-5.25,-1.461
1772978880377.7344,-0.1383,0.1072,-0.9673,2.879,-5.066,-1.444
1772978880377.7344,-0.1365,0.1077,-0.9654,2.949,-5.18,-1.627
1772978880377.7344,-0.1376,0.1082,-0.9651,2.756,-5.495,-1.505
1772978880377.7344,-0.1372,0.1064,-0.9666,2.791,-5.399,-1.347
1772978880377.7344,-0.139,0.11,-0.965,2.643,-5.171,-1.208
1772978880377.7344,-0.1366,0.11,-0.9654,2.52,-5.224,-1.365
1772978880377.7344,-0.1366,0.1102,-0.9653,2.511,-5.513,-1.374
1772978880393.6309,-0.1379,0.1085,-0.9631,2.607,-5.303,-1.216
1772978880393.6309,-0.1376,0.1101,-0.9649,2.809,-5.372,-1.26
1772978880393.6309,-0.1371,0.1099,-0.9645,2.774,-5.32,-1.4
1772978880393.6309,-0.1373,0.109,-0.9631,2.511,-5.197,-1.312
1772978880393.6309,-0.138,0.1093,-0.9626,2.695,-5.128,-1.4
1772978880393.6309,-0.1378,0.1087,-0.9639,2.958,-5.451,-1.365
1772978880393.6309,-0.141,0.1089,-0.9645,2.748,-5.442,-1.47
1772978880393.6309,-0.1397,0.1095,-0.962,2.765,-5.162,-1.33
1772978880393.6309,-0.1393,0.1104,-0.9647,2.502,-5.162,-1.54
1772978880393.6309,-0.1354,0.1106,-0.9644,2.476,-5.268,-1.584
1772978880393.6309,-0.1376,0.1106,-0.9618,2.52,-5.268,-1.356
1772978880393.6309,-0.1405,0.111,-0.9634,2.634,-5.136,-1.619
1772978880393.6309,-0.1382,0.1096,-0.9614,2.607,-4.944,-1.514
1772978880409.4387,-0.1357,0.1113,-0.962,2.459,-5.022,-1.802
1772978880409.4387,-0.1392,0.1088,-0.9624,2.214,-4.97,-1.461
1772978880409.4387,-0.137,0.1104,-0.962,2.275,-5.022,-1.601
1772978880409.4387,-0.1399,0.1098,-0.9632,2.336,-5.014,-1.715
1772978880409.4387,-0.138,0.1105,-0.9615,2.301,-4.891,-1.636
1772978880409.4387,-0.1363,0.1091,-0.9604,2.17,-5.162,-1.663
1772978880409.4387,-0.137,0.11,-0.9601,2.223,-5.101,-1.584
1772978880409.4387,-0.1373,0.1076,-0.9617,2.231,-5.049,-1.426
1772978880409.4387,-0.138,0.1068,-0.9643,2.214,-4.883,-1.724
1772978880409.4387,-0.1364,0.1092,-0.9611,2.31,-4.506,-1.698
1772978880409.4387,-0.1359,0.108,-0.9622,2.231,-4.874,-1.514
1772978880409.4387,-0.1355,0.1075,-0.9618,2.249,-4.699,-1.584
1772978880409.4387,-0.1355,0.1087,-0.9634,2.266,-4.559,-1.54
1772978880424.9216,-0.137,0.1087,-0.964,2.231,-4.585,-1.47
1772978880424.9216,-0.1405,0.1091,-0.9622,2.214,-4.436,-1.689
1772978880424.9216,-0.1379,0.1074,-0.9631,1.96,-4.497,-1.593
1772978880424.9216,-0.1355,0.1073,-0.9643,1.969,-4.375,-1.794
1772978880424.9216,-0.1363,0.1074,-0.9627,1.96,-4.366,-1.776
1772978880424.9216,-0.1364,0.1051,-0.9616,2.214,-4.541,-1.619
1772978880424.9216,-0.1354,0.1064,-0.965,2.135,-4.375,-1.514
1772978880424.9216,-0.1345,0.1061,-0.9667,2.144,-4.279,-1.452
1772978880424.9216,-0.1371,0.105,-0.9631,2.24,-4.235,-1.488
1772978880424.9216,-0.1347,0.1071,-0.9653,2.328,-4.375,-1.776
1772978880424.9216,-0.1347,0.1071,-0.9675,2.433,-4.287,-1.601
1772978880424.9216,-0.1354,0.1083,-0.9653,2.433,-4.401,-1.47
1772978880440.838,-0.1347,0.107,-0.9684,2.467,-4.48,-1.286
1772978880440.838,-0.1339,0.1049,-0.9654,2.301,-4.489,-1.094
1772978880440.838,-0.1358,0.1073,-0.9684,2.45,-4.445,-1.374
1772978880440.838,-0.1343,0.1091,-0.969,2.669,-4.261,-1.514
1772978880440.838,-0.1359,0.1069,-0.9675,2.581,-4.209,-1.33
1772978880440.838,-0.1351,0.1091,-0.9708,2.502,-4.419,-1.356
1772978880440.838,-0.1341,0.1091,-0.9735,2.783,-4.681,-1.33
1772978880440.838,-0.1356,0.1074,-0.9697,2.958,-4.585,-1.558
1772978880440.838,-0.1349,0.1104,-0.9723,2.756,-4.497,-1.488
1772978880440.838,-0.1346,0.1094,-0.9731,2.783,-4.944,-1.225
1772978880440.838,-0.1359,0.1102,-0.9741,2.634,-4.655,-1.208
1772978880440.838,-0.1345,0.1101,-0.9744,2.809,-4.874,-1.19
1772978880440.838,-0.136,0.1103,-0.9761,2.966,-4.961,-1.225
1772978880456.1702,-0.1352,0.1097,-0.9785,3.237,-5.093,-1.426
1772978880456.1702,-0.1346,0.1108,-0.9806,3.106,-5.416,-1.286
1772978880456.1702,-0.1345,0.1103,-0.9809,3.019,-5.381,-1.339
1772978880456.1702,-0.1372,0.1122,-0.9788,3.062,-5.469,-1.61
1772978880456.1702,-0.1345,0.1106,-0.9781,3.203,-5.705,-1.671
1772978880456.1702,-0.1353,0.1095,-0.982,3.386,-5.924,-1.531
1772978880456.1702,-0.1354,0.1103,-0.9806,3.272,-5.968,-1.531
1772978880456.1702,-0.135,0.1108,-0.9791,3.054,-6.239,-1.636
1772978880456.1702,-0.1373,0.1124,-0.9788,3.194,-6.23,-1.286
1772978880456.1702,-0.1354,0.1089,-0.98,3.447,-6.501,-1.61
1772978880456.1702,-0.1356,0.1102,-0.9765,3.167,-6.72,-1.689
1772978880456.1702,-0.1366,0.1123,-0.9773,3.22,-6.624,-1.768
1772978880456.1702,-0.1354,0.1114,-0.9753,3.194,-6.974,-1.689
1772978880471.6272,-0.1368,0.11,-0.9755,3.369,-7.07,-1.698
1772978880471.6272,-0.1355,0.1121,-0.9761,3.203,-7.079,-1.846
1772978880471.6272,-0.1368,0.1103,-0.9744,3.141,-7.289,-1.768
1772978880471.6272,-0.1357,0.1111,-0.9742,2.844,-7.385,-1.794
1772978880471.6272,-0.1371,0.1127,-0.9731,2.931,-7.411,-2.013
1772978880471.6272,-0.1347,0.1113,-0.9706,2.905,-7.726,-2.065
1772978880471.6272,-0.1365,0.1106,-0.9712,2.826,-7.796,-1.951
1772978880471.6272,-0.1378,0.1089,-0.9701,2.888,-7.84,-1.925
1772978880471.6272,-0.1366,0.1122,-0.9668,2.774,-7.744,-1.969
1772978880471.6272,-0.1371,0.11,-0.9717,2.861,-7.884,-2.205
1772978880471.6272,-0.1378,0.1077,-0.9658,2.765,-7.822,-2.188
1772978880471.6272,-0.135,0.1074,-0.9665,2.415,-7.761,-2.292
1772978880486.8496,-0.1375,0.1072,-0.9651,2.275,-7.604,-2.188
1772978880486.8496,-0.1377,0.1054,-0.9636,2.275,-7.543,-2.039
1772978880486.8496,-0.1368,0.1061,-0.9634,2.196,-7.508,-1.934
1772978880486.8496,-0.1351,0.1049,-0.9628,2.083,-7.263,-1.925
1772978880486.8496,-0.1371,0.1042,-0.9629,2.109,-7.359,-1.916
1772978880486.8496,-0.1369,0.1016,-0.9593,2.109,-7.07,-1.811
1772978880486.8496,-0.1362,0.1009,-0.96,2.047,-6.965,-2.013
1772978880486.8496,-0.1394,0.0988,-0.9592,2.056,-6.589,-1.837
1772978880486.8496,-0.1355,0.1,-0.9602,1.969,-6.912,-1.811
1772978880486.8496,-0.1368,0.0994,-0.9572,1.934,-6.58,-1.663
1772978880486.8496,-0.1363,0.1007,-0.9586,1.855,-5.95,-1.776
1772978880486.8496,-0.1369,0.0976,-0.9601,1.846,-6.388,-1.566
1772978880502.144,-0.1365,0.0982,-0.9592,2.004,-6.291,-1.286
1772978880502.144,-0.136,0.0957,-0.9622,1.89,-5.819,-1.208
1772978880502.144,-0.1361,0.0971,-0.9614,1.837,-5.591,-1.094
1772978880502.144,-0.1376,0.0965,-0.9626,1.986,-5.425,-0.892
1772978880502.144,-0.1371,0.0996,-0.9639,2.118,-5.259,-0.761
1772978880502.144,-0.1357,0.0979,-0.9614,2.1,-5.093,-0.639
1772978880502.144,-0.1377,0.0975,-0.9654,2.266,-5.014,-0.823
1772978880502.144,-0.1344,0.1002,-0.9643,2.336,-5.04,-0.647
1772978880502.144,-0.1376,0.1027,-0.9658,2.275,-4.725,-0.56
1772978880502.144,-0.1364,0.0998,-0.9687,2.45,-4.883,-0.516
1772978880502.144,-0.1368,0.1018,-0.9676,2.546,-4.804,-0.542
1772978880502.144,-0.1376,0.1047,-0.9721,2.59,-5.058,-0.718
1772978880502.144,-0.1371,0.1053,-0.9694,2.651,-4.952,-0.263
1772978880517.3025,-0.1355,0.1071,-0.972,2.774,-4.804,-0.429
1772978880517.3025,-0.1365,0.1071,-0.9716,2.8,-4.804,-0.551
1772978880517.3025,-0.1365,0.1084,-0.9726,2.958,-4.506,-0.542
1772978880517.3025,-0.1378,0.1096,-0.9706,2.984,-4.629,-0.604
1772978880517.3025,-0.1381,0.1119,-0.9728,2.879,-4.716,-0.569
1772978880517.3025,-0.1367,0.1108,-0.9736,3.185,-4.716,-0.735
1772978880517.3025,-0.1353,0.1138,-0.9744,3.229,-4.673,-0.84
1772978880517.3025,-0.1354,0.1128,-0.9709,3.001,-4.322,-0.814
1772978880517.3025,-0.1351,0.1128,-0.9715,2.966,-4.55,-0.927
1772978880517.3025,-0.1362,0.1115,-0.9742,2.879,-4.559,-1.251
1772978880517.3025,-0.1357,0.1127,-0.9723,3.124,-4.725,-1.33
1772978880517.3025,-0.1357,0.1135,-0.9677,3.132,-4.664,-1.479
1772978880532.6965,-0.1346,0.1113,-0.9692,2.984,-4.594,-1.522
1772978880532.6965,-0.1367,0.1107,-0.9712,2.984,-4.848,-1.444
1772978880532.6965,-0.1365,0.1128,-0.969,3.01,-4.9,-1.514
1772978880532.6965,-0.1378,0.1125,-0.9689,2.861,-4.795,-1.593
1772978880532.6965,-0.1338,0.1097,-0.969,2.888,-5.119,-1.584
1772978880532.6965,-0.1343,0.1099,-0.9669,2.774,-5.093,-1.689
1772978880532.6965,-0.1335,0.1091,-0.9675,2.634,-4.804,-1.855
1772978880532.6965,-0.1365,0.1084,-0.9647,2.564,-5.058,-1.934
1772978880532.6965,-0.1357,0.1078,-0.9662,2.739,-5.197,-1.995
1772978880532.6965,-0.1328,0.1043,-0.9657,2.739,-5.162,-1.829
1772978880532.6965,-0.1349,0.1058,-0.9643,2.66,-5.058,-1.951
1772978880532.6965,-0.1329,0.1045,-0.9643,2.406,-4.996,-1.811
1772978880532.6965,-0.1326,0.104,-0.9648,2.38,-4.996,-1.846
1772978880548.303,-0.1346,0.1033,-0.9642,2.354,-5.206,-1.645
1772978880548.303,-0.1338,0.1024,-0.9647,2.223,-4.987,-1.54
1772978880548.303,-0.1341,0.1025,-0.9622,2.126,-5.005,-1.4
1772978880548.303,-0.1335,0.1035,-0.96,2.065,-5.005,-1.347
1772978880548.303,-0.1343,0.1047,-0.9616,2.214,-5.066,-1.654
1772978880548.303,-0.1352,0.1049,-0.959,2.03,-4.812,-1.374
1772978880548.303,-0.1316,0.1036,-0.9599,1.846,-4.961,-1.365
1772978880548.303,-0.1349,0.1036,-0.9584,1.855,-5.04,-1.173
1772978880548.303,-0.1365,0.1041,-0.9609,1.899,-5.014,-1.19
1772978880548.303,-0.1351,0.1035,-0.9598,2.109,-4.699,-1.199
1772978880548.303,-0.1354,0.1042,-0.9614,2.021,-4.812,-1.234
1772978880548.303,-0.1364,0.1053,-0.9604,2.065,-4.926,-1.347
1772978880563.7012,-0.1352,0.106,-0.961,2.021,-4.629,-1.085
1772978880563.7012,-0.1373,0.1065,-0.9598,2.188,-4.629,-0.989
1772978880563.7012,-0.1379,0.1067,-0.9603,2.047,-4.401,-1.12
1772978880563.7012,-0.136,0.1063,-0.9607,2.109,-4.471,-1.024
1772978880563.7012,-0.1371,0.1085,-0.9618,2.257,-4.121,-0.936
1772978880563.7012,-0.1382,0.1074,-0.9617,1.969,-4.043,-1.041
1772978880563.7012,-0.1394,0.1088,-0.9623,2.083,-4.077,-1.015
1772978880563.7012,-0.139,0.108,-0.9636,2.301,-3.876,-0.858
1772978880563.7012,-0.1378,0.1101,-0.9589,2.555,-3.754,-0.919
1772978880563.7012,-0.1391,0.1102,-0.9615,2.441,-3.754,-0.875
1772978880563.7012,-0.1391,0.1099,-0.9637,2.634,-3.614,-0.735
1772978880563.7012,-0.1402,0.1114,-0.9645,2.809,-3.789,-0.849
1772978880563.7012,-0.1371,0.1128,-0.967,2.853,-3.587,-0.919
1772978880579.3994,-0.1402,0.1111,-0.9633,2.958,-3.377,-0.936
1772978880579.3994,-0.1395,0.111,-0.9653,3.01,-3.369,-1.032
1772978880579.3994,-0.1418,0.1128,-0.9665,3.08,-3.377,-0.814
1772978880579.3994,-0.1432,0.113,-0.9667,3.299,-3.185,-0.726
1772978880579.3994,-0.1434,0.1139,-0.9676,3.553,-3.115,-0.709
1772978880579.3994,-0.1405,0.1114,-0.9695,3.561,-2.835,-0.56
1772978880579.3994,-0.1423,0.1142,-0.9665,3.614,-2.607,-0.787
1772978880579.3994,-0.1407,0.1147,-0.9662,3.596,-2.695,-0.604
1772978880579.3994,-0.1425,0.1149,-0.967,3.771,-2.695,-0.639
1772978880579.3994,-0.1432,0.1156,-0.9667,3.999,-2.354,-0.709
1772978880579.3994,-0.1432,0.1137,-0.9656,3.876,-2.546,-0.674
1772978880579.3994,-0.143,0.1149,-0.9624,4.314,-2.257,-0.647
1772978880579.3994,-0.1418,0.1154,-0.9654,4.235,-2.45,-0.752
1772978880594.3933,-0.1422,0.115,-0.9658,4.331,-2.083,-0.578
1772978880594.3933,-0.1441,0.1136,-0.9641,4.384,-2.144,-0.7
1772978880594.3933,-0.1429,0.1156,-0.9611,4.393,-2.17,-0.569
1772978880594.3933,-0.1427,0.1154,-0.9586,4.62,-2.17,-0.691
1772978880594.3933,-0.1413,0.1144,-0.9586,4.62,-2.249,-0.954
1772978880594.3933,-0.1437,0.1136,-0.9586,4.594,-2.389,-1.103
1772978880594.3933,-0.1417,0.113,-0.9585,4.812,-2.257,-1.006
1772978880594.3933,-0.1413,0.1141,-0.9536,4.734,-1.689,-1.059
1772978880594.3933,-0.1429,0.1148,-0.9512,4.384,-1.636,-1.146
1772978880594.3933,-0.1444,0.1133,-0.9523,4.48,-1.522,-0.91
1772978880594.3933,-0.1434,0.1147,-0.9515,4.629,-1.4,-0.998
1772978880594.3933,-0.1444,0.1126,-0.9518,4.725,-1.531,-1.242
1772978880610.449,-0.143,0.1115,-0.9481,4.777,-1.356,-1.4
1772978880610.449,-0.1413,0.1121,-0.9475,4.664,-1.312,-1.321
1772978880610.449,-0.1418,0.1104,-0.9466,4.883,-1.164,-1.199
1772978880610.449,-0.1426,0.1119,-0.9465,4.795,-1.137,-1.094
1772978880610.449,-0.1417,0.1096,-0.9469,4.69,-1.05,-1.12
1772978880610.449,-0.1421,0.11,-0.9451,4.673,-1.006,-1.137
1772978880610.449,-0.1408,0.1083,-0.9414,4.646,-1.216,-1.321
1772978880610.449,-0.141,0.1082,-0.9412,4.681,-1.103,-1.208
1772978880610.449,-0.1391,0.1096,-0.9424,4.804,-0.779,-0.954
1772978880610.449,-0.1401,0.107,-0.9418,4.742,-0.682,-0.875
1772978880610.449,-0.1414,0.1069,-0.9426,4.699,-0.726,-1.024
1772978880610.449,-0.1404,0.1053,-0.9421,4.611,-0.604,-0.892
1772978880610.449,-0.1393,0.1051,-0.9434,4.567,-0.324,-0.831
1772978880624.7058,-0.1419,0.1044,-0.9445,4.576,-0.271,-0.963
1772978880624.7058,-0.1398,0.1046,-0.9465,4.48,0.026,-0.945
1772978880624.7058,-0.1386,0.1052,-0.9443,4.428,-0.228,-0.796
1772978880624.7058,-0.1392,0.1038,-0.9442,4.454,-0.315,-0.875
1772978880624.7058,-0.1391,0.1055,-0.9459,4.34,-0.096,-0.7
1772978880624.7058,-0.1402,0.102,-0.9484,4.471,-0.122,-0.892
1772978880624.7058,-0.1365,0.1026,-0.9511,4.489,-0.122,-0.805
1772978880624.7058,-0.1376,0.0998,-0.9509,4.559,-0.07,-0.805
1772978880624.7058,-0.1356,0.0987,-0.952,4.576,-0.193,-0.866
1772978880624.7058,-0.1349,0.0989,-0.9532,4.375,0.026,-0.831
1772978880624.7058,-0.1348,0.1006,-0.9572,4.489,-0.228,-0.578
1772978880639.8474,-0.1348,0.0998,-0.9585,4.611,-0.35,-0.49
1772978880639.8474,-0.1346,0.0986,-0.9623,4.506,-0.385,-0.403
1772978880639.8474,-0.1354,0.098,-0.9617,4.48,-0.49,-0.306
1772978880639.8474,-0.131,0.1001,-0.9656,4.419,-0.534,-0.21
1772978880639.8474,-0.1298,0.1005,-0.9653,4.253,-0.49,-0.21
1772978880639.8474,-0.1297,0.1002,-0.9667,4.226,-0.752,-0.175
1772978880639.8474,-0.1293,0.103,-0.9679,4.069,-0.954,-0.175
1772978880639.8474,-0.1292,0.1017,-0.9681,4.366,-1.111,-0.193
1772978880639.8474,-0.1302,0.1015,-0.971,4.331,-1.391,-0.297
1772978880639.8474,-0.1282,0.1031,-0.9755,4.104,-1.479,-0.07
1772978880639.8474,-0.1258,0.1036,-0.9758,3.973,-1.75,-0.07
1772978880639.8474,-0.1283,0.1056,-0.9806,4.095,-1.934,-0.175
1772978880639.8474,-0.1268,0.1067,-0.9797,3.806,-1.916,-0.061
1772978880655.813,-0.1252,0.1066,-0.9802,3.763,-2.529,-0.131
1772978880655.813,-0.1257,0.1057,-0.9819,3.981,-3.01,-0.289
1772978880655.813,-0.1254,0.1052,-0.9837,3.815,-3.413,-0.455
1772978880655.813,-0.1231,0.1059,-0.986,3.605,-3.675,-0.315
1772978880655.813,-0.1251,0.106,-0.9821,3.57,-3.605,-0.691
1772978880655.813,-0.1245,0.1036,-0.9836,3.535,-4.043,-0.718
1772978880655.813,-0.124,0.1064,-0.9858,3.482,-4.41,-0.752
1772978880655.813,-0.1252,0.1071,-0.9843,3.264,-4.463,-0.875
1772978880655.813,-0.1249,0.1058,-0.9835,3.132,-4.699,-0.849
1772978880655.813,-0.124,0.1053,-0.9847,3.062,-4.812,-0.866
1772978880655.813,-0.1215,0.108,-0.988,2.993,-5.066,-1.103
1772978880655.813,-0.1222,0.1072,-0.987,3.036,-5.372,-0.936
1772978880670.7363,-0.1233,0.1089,-0.9862,2.931,-5.688,-1.173
1772978880670.7363,-0.1199,0.108,-0.9865,2.94,-5.924,-1.19
1772978880670.7363,-0.1202,0.1082,-0.9872,2.791,-6.37,-1.383
1772978880670.7363,-0.1183,0.1093,-0.9867,2.678,-6.659,-1.566
1772978880670.7363,-0.1208,0.1064,-0.9847,2.607,-6.799,-1.558
1772978880670.7363,-0.118,0.1082,-0.9853,2.354,-6.825,-1.645
1772978880670.7363,-0.1202,0.1096,-0.9855,2.459,-7.026,-1.689
1772978880670.7363,-0.1197,0.1081,-0.9809,2.336,-7.473,-1.776
1772978880670.7363,-0.1188,0.1086,-0.9816,2.179,-7.674,-1.654
1772978880670.7363,-0.1186,0.1108,-0.9815,2.406,-7.805,-1.881
1772978880670.7363,-0.1174,0.1082,-0.9815,2.083,-7.849,-2.047
1772978880670.7363,-0.1206,0.1099,-0.9797,2.109,-8.033,-2.083
1772978880670.7363,-0.1193,0.1096,-0.9781,2.039,-8.05,-2.152
1772978880686.6936,-0.1186,0.108,-0.9786,1.811,-8.102,-2.196
1772978880686.6936,-0.1196,0.109,-0.9756,1.873,-8.111,-2.275
1772978880686.6936,-0.1194,0.1112,-0.9762,1.75,-8.269,-2.292
1772978880686.6936,-0.1198,0.109,-0.9774,1.698,-8.269,-2.196
1772978880686.6936,-0.1204,0.1128,-0.978,1.584,-7.98,-2.214
1772978880686.6936,-0.1208,0.1132,-0.9756,1.461,-7.875,-2.17
1772978880686.6936,-0.1197,0.1093,-0.972,1.654,-7.919,-2.275
1772978880686.6936,-0.1224,0.1096,-0.9705,1.531,-7.884,-2.362
1772978880686.6936,-0.1204,0.1105,-0.9718,1.295,-7.77,-2.52
1772978880686.6936,-0.1218,0.1112,-0.9706,1.356,-8.006,-2.45
1772978880686.6936,-0.125,0.1099,-0.97,1.461,-7.875,-2.406
1772978880686.6936,-0.1224,0.109,-0.9693,1.295,-7.56,-2.406
1772978880702.0088,-0.126,0.1088,-0.9691,1.234,-7.621,-2.511
1772978880702.0088,-0.1237,0.1093,-0.969,1.129,-7.21,-2.529
1772978880702.0088,-0.125,0.1114,-0.9674,1.076,-7.228,-2.424
1772978880702.0088,-0.1275,0.1108,-0.9721,0.963,-7.0,-2.24
1772978880702.0088,-0.1258,0.1111,-0.9692,1.059,-7.009,-2.214
1772978880702.0088,-0.1258,0.1115,-0.9662,1.164,-7.053,-2.52
1772978880702.0088,-0.1272,0.1111,-0.9666,1.269,-6.746,-2.441
1772978880702.0088,-0.1266,0.1108,-0.9679,1.304,-6.764,-2.266
1772978880702.0088,-0.1272,0.1095,-0.9671,1.417,-6.702,-2.275
1772978880702.0088,-0.1281,0.1122,-0.9664,1.321,-6.309,-2.109
1772978880702.0088,-0.1285,0.1122,-0.9664,1.452,-5.994,-2.065
1772978880702.0088,-0.1307,0.1111,-0.9652,1.759,-5.915,-2.039
1772978880702.0088,-0.1293,0.1109,-0.9684,1.829,-5.513,-1.978
1772978880717.533,-0.1304,0.1121,-0.9654,1.907,-5.731,-1.925
1772978880717.533,-0.1314,0.113,-0.9694,1.881,-5.18,-1.855
1772978880717.533,-0.1316,0.1122,-0.9667,1.986,-5.224,-1.925
1772978880717.533,-0.131,0.1103,-0.9671,2.126,-5.075,-1.829
1772978880717.533,-0.133,0.1098,-0.9656,2.292,-4.979,-1.47
1772978880717.533,-0.133,0.1116,-0.9671,2.476,-4.742,-1.663
1772978880717.533,-0.1338,0.1103,-0.9637,2.433,-4.638,-1.496
1772978880717.533,-0.1333,0.111,-0.964,2.494,-4.419,-1.663
1772978880717.533,-0.1334,0.1108,-0.9654,2.564,-4.638,-1.601
1772978880717.533,-0.1325,0.1118,-0.9643,2.931,-4.279,-1.566
1772978880717.533,-0.1329,0.1103,-0.965,3.01,-4.366,-1.47
1772978880717.533,-0.1335,0.1124,-0.9653,2.966,-4.445,-1.347
1772978880732.9702,-0.1349,0.1122,-0.9664,3.185,-3.946,-1.269
1772978880732.9702,-0.1349,0.1091,-0.9679,3.132,-4.077,-1.356
1772978880732.9702,-0.1342,0.1111,-0.9668,3.167,-3.938,-1.173
1772978880732.9702,-0.1349,0.1102,-0.9644,3.386,-3.902,-1.12
1772978880732.9702,-0.1345,0.1075,-0.9661,3.649,-3.981,-1.111
1772978880732.9702,-0.1353,0.1088,-0.9656,3.623,-3.85,-1.05
1772978880732.9702,-0.134,0.1077,-0.9648,3.806,-3.999,-1.067
1772978880732.9702,-0.136,0.1058,-0.9672,3.92,-3.692,-1.12
1772978880732.9702,-0.1359,0.1084,-0.9649,3.868,-3.692,-0.866
1772978880732.9702,-0.1368,0.1063,-0.9651,3.833,-3.342,-0.77
1772978880732.9702,-0.1353,0.1072,-0.9648,3.841,-3.658,-0.604
1772978880732.9702,-0.1344,0.1069,-0.9642,4.112,-3.649,-0.744
1772978880732.9702,-0.1345,0.1064,-0.9643,3.999,-3.692,-0.674
1772978880748.1897,-0.1353,0.1069,-0.9657,4.034,-3.614,-0.63
1772978880748.1897,-0.1338,0.1043,-0.9635,3.763,-3.272,-0.665
1772978880748.1897,-0.1374,0.1032,-0.9672,3.806,-3.36,-0.682
1772978880748.1897,-0.1365,0.1049,-0.9656,3.763,-3.596,-0.639
1772978880748.1897,-0.1367,0.1046,-0.9659,4.069,-3.631,-0.595
1772978880748.1897,-0.1347,0.1028,-0.9653,3.763,-3.771,-0.394
1772978880748.1897,-0.1342,0.1032,-0.9647,3.587,-3.85,-0.499
1772978880748.1897,-0.1383,0.1019,-0.9642,3.719,-3.797,-0.516
1772978880748.1897,-0.1343,0.1052,-0.9634,3.623,-3.929,-0.542
1772978880748.1897,-0.1337,0.1056,-0.9648,3.526,-3.78,-0.507
1772978880748.1897,-0.1344,0.1043,-0.9639,3.369,-3.902,-0.507
1772978880748.1897,-0.1325,0.104,-0.9622,3.43,-4.016,-0.411
1772978880763.4155,-0.1338,0.1051,-0.9654,3.482,-4.077,-0.647
1772978880763.4155,-0.1332,0.1027,-0.9644,3.167,-4.253,-0.726
1772978880763.4155,-0.1316,0.1044,-0.9615,3.255,-4.147,-0.936
1772978880763.4155,-0.1331,0.1036,-0.9625,3.194,-3.99,-0.866
1772978880763.4155,-0.1293,0.1032,-0.9661,3.342,-4.331,-0.77
1772978880763.4155,-0.1327,0.1035,-0.9647,3.124,-4.445,-0.866
1772978880763.4155,-0.1322,0.1051,-0.9642,3.01,-4.506,-0.761
1772978880763.4155,-0.1317,0.1052,-0.9636,2.721,-4.27,-0.682
1772978880763.4155,-0.1315,0.1055,-0.9637,2.765,-4.314,-1.05
1772978880763.4155,-0.1316,0.1046,-0.9645,2.774,-4.594,-0.919
1772978880763.4155,-0.1322,0.1036,-0.9623,2.958,-4.463,-1.103
1772978880763.4155,-0.1302,0.1052,-0.964,2.774,-4.375,-1.032
1772978880763.4155,-0.1305,0.1051,-0.964,2.581,-4.681,-1.015
1772978880780.5178,-0.1312,0.1041,-0.9637,2.634,-4.987,-1.146
1772978880780.5178,-0.1285,0.1034,-0.963,2.502,-5.075,-1.076
1772978880780.5178,-0.1282,0.1039,-0.9618,2.546,-4.742,-1.383
1772978880780.5178,-0.1296,0.1048,-0.961,2.581,-4.69,-1.251
1772978880780.5178,-0.1289,0.1059,-0.9642,2.529,-5.031,-1.164
1772978880780.5178,-0.1276,0.1069,-0.964,2.433,-4.909,-1.076
1772978880780.5178,-0.1298,0.1061,-0.9639,2.441,-5.04,-1.208
1772978880780.5178,-0.1305,0.108,-0.9618,2.634,-5.197,-1.409
1772978880780.5178,-0.1298,0.1051,-0.9634,2.511,-5.154,-1.4
1772978880780.5178,-0.1293,0.1053,-0.9628,2.511,-5.101,-1.365
1772978880780.5178,-0.1272,0.1053,-0.9649,2.538,-5.197,-1.452
1772978880780.5178,-0.1288,0.1064,-0.9639,2.572,-5.145,-1.531
1772978880780.5178,-0.1273,0.1072,-0.9638,2.52,-5.425,-1.409
1772978880794.9294,-0.1297,0.1067,-0.9653,2.599,-5.434,-1.347
1772978880794.9294,-0.1283,0.1069,-0.9645,2.73,-5.513,-1.347
1772978880794.9294,-0.1276,0.1084,-0.9658,2.538,-5.574,-1.242
1772978880794.9294,-0.1301,0.1077,-0.9661,2.704,-5.486,-1.304
1772978880794.9294,-0.1318,0.1089,-0.9628,2.94,-5.626,-1.461
1772978880794.9294,-0.1286,0.1105,-0.9623,3.089,-5.862,-1.085
1772978880794.9294,-0.1304,0.1103,-0.9642,2.879,-5.819,-1.426
1772978880794.9294,-0.1292,0.1114,-0.9642,2.826,-5.661,-1.452
1772978880794.9294,-0.1288,0.1105,-0.9641,2.616,-5.652,-1.645
1772978880794.9294,-0.1306,0.1103,-0.9639,2.686,-5.6,-1.732
1772978880794.9294,-0.1299,0.11,-0.9654,2.756,-5.714,-1.584
1772978880794.9294,-0.1304,0.11,-0.9667,2.774,-5.81,-1.654
1772978880810.223,-0.129,0.1096,-0.9662,2.712,-5.723,-1.759
1772978880810.223,-0.1285,0.1109,-0.9661,2.984,-5.845,-1.907
1772978880810.223,-0.1296,0.1102,-0.964,2.966,-5.906,-1.907
1772978880810.223,-0.1282,0.1113,-0.9659,2.861,-6.029,-1.942
1772978880810.223,-0.1282,0.1118,-0.9644,2.774,-5.924,-2.083
1772978880810.223,-0.128,0.1105,-0.967,2.704,-5.95,-2.039
1772978880810.223,-0.1281,0.1109,-0.9682,2.756,-6.02,-2.144
1772978880810.223,-0.1286,0.1102,-0.9647,2.748,-6.213,-2.03
1772978880810.223,-0.1273,0.1112,-0.9658,3.045,-6.037,-2.039
1772978880810.223,-0.1283,0.1084,-0.9661,2.774,-6.213,-2.126
1772978880810.223,-0.1299,0.1086,-0.9685,3.203,-6.23,-1.986
1772978880810.223,-0.1278,0.1103,-0.9712,2.984,-6.466,-2.161
1772978880810.223,-0.1313,0.1078,-0.9692,2.896,-6.388,-2.065
1772978880825.5735,-0.1283,0.1089,-0.9697,2.853,-6.195,-2.056
1772978880825.5735,-0.1283,0.11,-0.9676,2.774,-6.388,-2.039
1772978880825.5735,-0.1282,0.1101,-0.9688,2.695,-6.09,-1.89
1772978880825.5735,-0.1288,0.1086,-0.9683,2.529,-5.994,-2.083
1772978880825.5735,-0.1277,0.1071,-0.9701,2.599,-6.335,-1.951
1772978880825.5735,-0.1272,0.1108,-0.9692,2.616,-6.221,-2.074
1772978880825.5735,-0.1272,0.1086,-0.9694,2.599,-6.151,-1.969
1772978880825.5735,-0.1279,0.1098,-0.9728,2.721,-6.388,-1.899
1772978880825.5735,-0.1292,0.11,-0.9729,2.678,-6.449,-2.1
1772978880825.5735,-0.1284,0.1114,-0.9723,2.669,-6.519,-2.415
1772978880825.5735,-0.1279,0.1124,-0.9731,2.529,-6.615,-2.538
1772978880825.5735,-0.1291,0.1126,-0.9708,2.52,-6.641,-2.354
1772978880840.9092,-0.1286,0.1093,-0.9713,2.511,-6.598,-2.24
1772978880840.9092,-0.1276,0.1097,-0.9717,2.555,-6.668,-2.231
1772978880840.9092,-0.1296,0.1099,-0.9718,2.581,-6.641,-2.091
1772978880840.9092,-0.1298,0.1099,-0.972,2.651,-6.44,-2.275
1772978880840.9092,-0.1288,0.108,-0.9723,2.774,-6.729,-2.144
1772978880840.9092,-0.129,0.1099,-0.9718,2.678,-6.79,-2.144
1772978880840.9092,-0.1306,0.1083,-0.9706,2.52,-6.571,-2.152
1772978880840.9092,-0.1308,0.1087,-0.9716,2.485,-6.484,-2.004
1772978880840.9092,-0.1301,0.1071,-0.972,2.319,-6.51,-1.925
1772978880840.9092,-0.1302,0.1077,-0.9729,2.511,-6.694,-2.188
1772978880840.9092,-0.1312,0.1071,-0.9732,2.494,-6.781,-2.328
1772978880840.9092,-0.1303,0.1082,-0.9716,2.59,-6.816,-2.345
1772978880857.8323,-0.1294,0.1074,-0.9705,2.529,-6.772,-2.091
1772978880857.8323,-0.1303,0.1074,-0.9728,2.284,-6.965,-1.969
1772978880857.8323,-0.1313,0.1074,-0.9706,2.485,-6.808,-2.074
1772978880857.8323,-0.1299,0.1079,-0.9701,2.24,-6.519,-1.837
1772978880857.8323,-0.1314,0.1067,-0.969,2.319,-6.676,-1.881
1772978880857.8323,-0.1334,0.1062,-0.9697,2.188,-6.659,-2.03
1772978880857.8323,-0.1331,0.1047,-0.9681,2.214,-6.589,-1.768
1772978880857.8323,-0.1324,0.1041,-0.967,2.205,-6.641,-1.855
1772978880857.8323,-0.1319,0.1071,-0.9703,2.179,-6.641,-1.741
1772978880857.8323,-0.1316,0.1086,-0.9701,2.188,-6.72,-1.759
1772978880857.8323,-0.1304,0.1075,-0.967,2.109,-6.545,-1.549
1772978880857.8323,-0.1336,0.1085,-0.9691,2.179,-6.536,-1.732
1772978880857.8323,-0.1316,0.1079,-0.9681,2.118,-6.291,-1.802
1772978880857.8323,-0.1304,0.1078,-0.9665,2.336,-6.405,-1.715
1772978880872.8115,-0.1315,0.1096,-0.9665,2.406,-6.151,-1.61
1772978880872.8115,-0.1301,0.1082,-0.9662,2.266,-6.178,-1.593
1772978880872.8115,-0.1302,0.1067,-0.9683,2.362,-6.274,-1.409
1772978880872.8115,-0.1311,0.1071,-0.9677,2.249,-6.099,-1.531
1772978880872.8115,-0.1302,0.1081,-0.9632,2.249,-6.151,-1.619
1772978880872.8115,-0.1316,0.1075,-0.9655,2.205,-6.195,-1.4
1772978880872.8115,-0.1302,0.1077,-0.9658,2.354,-5.994,-1.584
1772978880872.8115,-0.1314,0.1097,-0.9655,2.354,-5.976,-1.452
1772978880872.8115,-0.1314,0.106,-0.9663,2.616,-5.933,-1.514
1772978880872.8115,-0.1301,0.1071,-0.9648,2.328,-5.731,-1.365
1772978880872.8115,-0.1299,0.1069,-0.9659,2.433,-5.67,-1.129
1772978880872.8115,-0.1307,0.1063,-0.9634,2.459,-5.416,-1.295
1772978880888.792,-0.1324,0.1048,-0.9656,2.406,-5.276,-1.137
1772978880888.792,-0.133,0.1057,-0.9631,2.59,-5.346,-1.137
1772978880888.792,-0.1307,0.1067,-0.9638,2.809,-5.25,-1.286
1772978880888.792,-0.1315,0.1058,-0.9654,2.581,-5.031,-1.234
1772978880888.792,-0.13,0.1054,-0.9619,2.599,-4.918,-1.111
1772978880888.792,-0.1327,0.1064,-0.965,2.643,-4.874,-1.146
1772978880888.792,-0.1315,0.1035,-0.9628,2.678,-4.559,-1.006
1772978880888.792,-0.1298,0.1044,-0.9651,2.599,-4.664,-0.936
1772978880888.792,-0.1316,0.1044,-0.9642,2.774,-4.865,-0.989
1772978880888.792,-0.1302,0.1069,-0.9603,2.888,-4.629,-0.866
1772978880888.792,-0.1344,0.1038,-0.9635,2.783,-4.576,-0.849
1772978880888.792,-0.1318,0.1056,-0.9625,2.712,-4.576,-0.866
1772978880888.792,-0.1315,0.104,-0.9661,2.678,-4.147,-0.735
1772978880904.0862,-0.1326,0.103,-0.9628,2.748,-4.305,-0.7
1772978880904.0862,-0.1341,0.1028,-0.9629,2.73,-4.331,-0.892
1772978880904.0862,-0.1326,0.1023,-0.9653,2.817,-3.981,-0.656
1772978880904.0862,-0.1313,0.1046,-0.9662,2.817,-4.06,-0.752
1772978880904.0862,-0.1324,0.1038,-0.9634,2.704,-3.99,-0.674
1772978880904.0862,-0.1353,0.1051,-0.9629,2.765,-4.043,-0.7
1772978880904.0862,-0.1328,0.1046,-0.9643,2.861,-3.868,-0.726
1772978880904.0862,-0.1341,0.1028,-0.9662,2.634,-3.701,-0.647
1772978880904.0862,-0.1325,0.1001,-0.962,2.607,-4.069,-0.639
1772978880904.0862,-0.1351,0.1017,-0.9633,2.59,-3.929,-0.534
1772978880904.0862,-0.1351,0.1049,-0.9631,2.739,-3.85,-0.481
1772978880904.0862,-0.134,0.1041,-0.9644,2.643,-3.797,-0.604
1772978880904.0862,-0.1366,0.1009,-0.9644,2.625,-3.658,-0.752
1772978880919.5132,-0.1366,0.1027,-0.9653,2.669,-3.841,-0.639
1772978880919.5132,-0.1377,0.1044,-0.9645,2.879,-3.868,-0.604
1772978880919.5132,-0.1388,0.1027,-0.9642,2.695,-3.841,-0.429
1772978880919.5132,-0.1361,0.1027,-0.965,2.721,-4.112,-0.481
1772978880919.5132,-0.1329,0.1015,-0.965,2.826,-4.043,-0.551
1772978880919.5132,-0.1358,0.1032,-0.9643,2.774,-4.043,-0.63
1772978880919.5132,-0.1363,0.1047,-0.9661,2.879,-4.025,-0.297
1772978880919.5132,-0.1349,0.1047,-0.9641,2.896,-4.077,-0.367
1772978880919.5132,-0.1362,0.1012,-0.9668,3.054,-4.2,-0.42
1772978880919.5132,-0.1351,0.1036,-0.9691,2.853,-4.471,-0.569
1772978880919.5132,-0.1354,0.1028,-0.965,2.905,-4.611,-0.271
1772978880919.5132,-0.1354,0.1044,-0.9701,3.124,-4.471,-0.289
1772978880934.961,-0.1324,0.1035,-0.9679,3.272,-4.751,-0.499
1772978880934.961,-0.1381,0.1032,-0.9686,3.246,-4.594,-0.446
1772978880934.961,-0.1355,0.1035,-0.967,3.334,-4.935,-0.507
1772978880934.961,-0.1332,0.1052,-0.9679,3.614,-5.014,-0.525
1772978880934.961,-0.1345,0.1054,-0.9678,3.404,-5.136,-0.7
1772978880934.961,-0.1316,0.1046,-0.9713,3.421,-5.162,-0.56
1772978880934.961,-0.1333,0.1047,-0.9695,3.342,-5.407,-0.551
1772978880934.961,-0.1331,0.1044,-0.9671,3.342,-5.355,-0.814
1772978880934.961,-0.1346,0.1048,-0.9706,3.281,-5.521,-0.814
1772978880934.961,-0.1321,0.1042,-0.9717,3.465,-5.688,-0.823
1772978880934.961,-0.1334,0.1066,-0.9696,3.281,-5.67,-0.779
1772978880934.961,-0.1347,0.1042,-0.9697,3.167,-5.801,-0.814
1772978880934.961,-0.1304,0.1042,-0.9698,3.421,-5.871,-0.647
1772978880950.8535,-0.1322,0.1041,-0.9719,3.237,-5.801,-0.787
1772978880950.8535,-0.1317,0.1058,-0.9714,3.272,-6.143,-0.98
1772978880950.8535,-0.131,0.1058,-0.9701,3.272,-6.309,-1.076
1772978880950.8535,-0.1326,0.1069,-0.9697,3.229,-6.011,-0.901
1772978880950.8535,-0.1285,0.1056,-0.971,3.036,-6.536,-0.875
1772978880950.8535,-0.1307,0.1064,-0.969,3.08,-6.965,-0.971
1772978880950.8535,-0.1301,0.1075,-0.9689,2.931,-6.772,-1.199
1772978880950.8535,-0.1316,0.1049,-0.9695,2.958,-6.912,-1.4
1772978880950.8535,-0.1298,0.1059,-0.9683,2.94,-6.912,-1.479
1772978880950.8535,-0.1299,0.1084,-0.9725,2.896,-6.729,-1.085
1772978880950.8535,-0.1306,0.107,-0.9694,2.905,-6.772,-1.234
1772978880950.8535,-0.1296,0.1077,-0.9667,2.643,-6.737,-1.26
1772978880950.8535,-0.1288,0.1081,-0.97,2.529,-6.912,-1.4
1772978880966.5662,-0.1286,0.1086,-0.9698,2.494,-6.965,-1.593
1772978880966.5662,-0.1276,0.1083,-0.9715,2.45,-6.965,-1.47
1772978880966.5662,-0.129,0.1075,-0.9692,2.205,-6.93,-1.54
1772978880966.5662,-0.1321,0.1072,-0.9681,1.96,-6.825,-1.645
1772978880966.5662,-0.1299,0.1088,-0.967,1.951,-6.816,-1.558
1772978880966.5662,-0.1306,0.108,-0.9671,2.144,-7.236,-1.636
1772978880966.5662,-0.1292,0.1073,-0.9659,2.047,-6.904,-1.584
1772978880966.5662,-0.1297,0.1087,-0.9665,2.013,-6.86,-1.505
1772978880966.5662,-0.1304,0.1099,-0.9649,2.039,-6.947,-1.811
1772978880966.5662,-0.1303,0.1083,-0.966,2.161,-6.851,-1.698
1772978880966.5662,-0.1299,0.1103,-0.965,2.205,-6.956,-1.732
1772978880966.5662,-0.1343,0.1105,-0.9642,2.039,-6.764,-1.689
1772978880966.5662,-0.1316,0.1079,-0.9683,1.89,-6.947,-1.89
1772978880981.6978,-0.1281,0.1111,-0.9679,1.986,-6.729,-1.636
1772978880981.6978,-0.131,0.1125,-0.9682,1.942,-6.772,-1.496
1772978880981.6978,-0.1294,0.1116,-0.966,2.039,-6.414,-1.417
1772978880981.6978,-0.1296,0.1144,-0.9627,1.864,-6.51,-1.601
1772978880981.6978,-0.1312,0.1122,-0.9649,2.056,-6.44,-1.514
1772978880981.6978,-0.133,0.1139,-0.962,2.074,-6.361,-1.365
1772978880981.6978,-0.1294,0.1135,-0.965,2.03,-6.003,-1.426
1772978880981.6978,-0.1301,0.1133,-0.9629,2.24,-6.081,-1.522
1772978880981.6978,-0.1304,0.115,-0.967,2.319,-6.029,-1.514
1772978880981.6978,-0.1277,0.1143,-0.967,2.345,-5.985,-1.689
1772978880981.6978,-0.1304,0.1136,-0.9667,2.415,-5.976,-1.575
1772978880981.6978,-0.1293,0.1147,-0.9648,2.581,-5.854,-1.461
1772978880997.0908,-0.1304,0.1154,-0.964,2.371,-5.688,-1.522
1772978880997.0908,-0.1278,0.1145,-0.9637,2.73,-5.985,-1.54
1772978880997.0908,-0.1275,0.1154,-0.9619,2.712,-5.652,-1.461
1772978880997.0908,-0.1285,0.116,-0.9653,2.835,-5.407,-1.391
1772978880997.0908,-0.1299,0.1143,-0.9653,2.958,-5.539,-1.452
1772978880997.0908,-0.1293,0.1178,-0.9631,2.835,-5.329,-1.286
1772978880997.0908,-0.1305,0.1176,-0.9647,2.931,-5.338,-1.032
1772978880997.0908,-0.1292,0.1155,-0.9644,2.984,-5.093,-1.155
1772978880997.0908,-0.1276,0.1162,-0.9654,3.027,-5.197,-1.531
1772978880997.0908,-0.1312,0.1183,-0.964,3.001,-5.154,-1.234
1772978880997.0908,-0.1286,0.1183,-0.9646,3.194,-4.909,-1.295
1772978880997.0908,-0.1272,0.1209,-0.9658,3.342,-4.952,-1.216
1772978881012.2874,-0.1273,0.1188,-0.9665,3.509,-4.769,-1.032
1772978881012.2874,-0.1279,0.1172,-0.9632,3.57,-4.41,-1.391
1772978881012.2874,-0.1289,0.1163,-0.964,3.5,-4.751,-1.12
1772978881012.2874,-0.1269,0.1159,-0.9619,3.579,-4.874,-1.19
1772978881012.2874,-0.1261,0.1145,-0.9624,3.561,-4.62,-1.208
1772978881012.2874,-0.1263,0.1172,-0.9622,3.518,-4.489,-1.103
1772978881012.2874,-0.1274,0.1164,-0.9628,3.649,-4.585,-1.216
1772978881012.2874,-0.1287,0.1175,-0.9636,3.701,-4.576,-1.041
1772978881012.2874,-0.1261,0.1161,-0.9617,3.736,-4.48,-1.103
1772978881012.2874,-0.1255,0.1161,-0.9648,3.789,-4.393,-0.945
1772978881012.2874,-0.124,0.1139,-0.9615,3.833,-4.532,-1.032
1772978881012.2874,-0.1251,0.1136,-0.9601,3.701,-4.104,-1.181
1772978881027.8682,-0.1255,0.1133,-0.9614,3.868,-4.218,-1.173
1772978881027.8682,-0.125,0.1148,-0.9603,3.728,-4.086,-0.989
1772978881027.8682,-0.1252,0.1136,-0.9634,3.754,-4.043,-1.006
1772978881027.8682,-0.1254,0.1146,-0.962,4.043,-3.868,-1.137
1772978881027.8682,-0.1257,0.1126,-0.9626,4.025,-3.745,-1.242
1772978881027.8682,-0.1249,0.1102,-0.9613,3.894,-4.077,-1.155
1772978881027.8682,-0.1244,0.1119,-0.9606,3.92,-3.902,-1.103
1772978881027.8682,-0.1263,0.1113,-0.9604,3.824,-3.902,-0.849
1772978881027.8682,-0.1269,0.1102,-0.9606,4.13,-3.955,-1.05
1772978881027.8682,-0.1253,0.1097,-0.9618,4.156,-4.13,-0.998
1772978881027.8682,-0.1258,0.1116,-0.9601,4.016,-3.999,-0.858
1772978881027.8682,-0.1269,0.1086,-0.9611,3.728,-4.069,-0.998
1772978881027.8682,-0.1271,0.1105,-0.9582,3.938,-4.244,-0.91
1772978881043.9468,-0.127,0.1091,-0.9622,3.658,-3.99,-0.77
1772978881043.9468,-0.1279,0.1084,-0.9627,3.824,-3.605,-0.718
1772978881043.9468,-0.1282,0.1103,-0.9612,3.579,-3.824,-0.91
1772978881043.9468,-0.1275,0.1085,-0.962,3.745,-3.938,-0.989
1772978881043.9468,-0.1269,0.1064,-0.9637,3.684,-3.78,-1.085
1772978881043.9468,-0.1271,0.1052,-0.9637,3.701,-3.789,-1.041
1772978881043.9468,-0.1296,0.1064,-0.9636,3.587,-3.771,-0.884
1772978881043.9468,-0.1308,0.1055,-0.9641,3.553,-4.156,-0.647
1772978881043.9468,-0.1273,0.1086,-0.9631,3.526,-3.981,-0.963
1772978881043.9468,-0.129,0.1047,-0.9647,3.526,-4.086,-0.892
1772978881043.9468,-0.1299,0.1058,-0.9637,3.658,-3.902,-0.779
1772978881043.9468,-0.1312,0.1061,-0.9628,3.272,-4.086,-0.936
1772978881043.9468,-0.1312,0.1047,-0.9651,3.518,-4.095,-0.954
1772978881059.8857,-0.1317,0.1033,-0.9663,3.456,-4.008,-0.989
1772978881059.8857,-0.1303,0.1034,-0.9701,3.124,-4.244,-0.761
1772978881059.8857,-0.1316,0.1027,-0.9673,3.176,-4.366,-0.84
1772978881059.8857,-0.1315,0.1019,-0.9703,3.098,-4.463,-0.963
1772978881059.8857,-0.1326,0.1025,-0.968,3.027,-4.34,-0.866
1772978881059.8857,-0.1318,0.1033,-0.968,2.975,-4.261,-0.971
1772978881059.8857,-0.1319,0.1041,-0.9669,2.774,-4.463,-0.945
1772978881059.8857,-0.1309,0.1058,-0.9678,2.765,-4.445,-1.146
1772978881059.8857,-0.1335,0.1033,-0.969,2.73,-4.506,-0.919
1772978881059.8857,-0.133,0.105,-0.9713,2.59,-4.777,-1.085
1772978881059.8857,-0.1325,0.1025,-0.9672,2.572,-4.751,-1.199
1772978881059.8857,-0.1327,0.1016,-0.969,2.424,-4.603,-1.067
1772978881059.8857,-0.1324,0.1021,-0.9675,2.616,-4.734,-1.015
1772978881075.5989,-0.136,0.104,-0.97,2.433,-5.058,-1.076
1772978881075.5989,-0.1344,0.1026,-0.97,2.354,-5.066,-1.278
1772978881075.5989,-0.1338,0.1039,-0.9692,2.441,-5.128,-1.383
1772978881075.5989,-0.1342,0.1042,-0.9706,2.354,-5.215,-1.225
1772978881075.5989,-0.1329,0.1033,-0.9701,2.319,-5.521,-1.347
1772978881075.5989,-0.1327,0.1024,-0.9708,2.275,-5.32,-1.225
1772978881075.5989,-0.1326,0.1046,-0.9708,2.1,-5.469,-1.347
1772978881075.5989,-0.1339,0.1039,-0.9706,2.091,-5.513,-1.321
1772978881075.5989,-0.1337,0.1049,-0.9687,1.96,-5.696,-1.47
1772978881075.5989,-0.1355,0.1053,-0.97,2.065,-5.644,-1.522
1772978881075.5989,-0.1326,0.1049,-0.972,1.916,-5.723,-1.356
1772978881075.5989,-0.1335,0.1055,-0.9737,1.881,-5.81,-1.645
1772978881075.5989,-0.136,0.1053,-0.9693,1.75,-5.88,-1.54
1772978881090.9973,-0.1357,0.1064,-0.9713,1.75,-5.766,-1.768
1772978881090.9973,-0.1323,0.1062,-0.97,1.759,-6.064,-1.785
1772978881090.9973,-0.1355,0.1075,-0.9711,1.732,-5.897,-1.925
1772978881090.9973,-0.1343,0.1078,-0.97,1.575,-5.862,-2.074
1772978881090.9973,-0.1339,0.1083,-0.9713,1.496,-6.16,-1.829
1772978881090.9973,-0.1348,0.1088,-0.967,1.645,-6.23,-2.196
1772978881090.9973,-0.1352,0.1089,-0.9671,1.759,-6.37,-2.021
1772978881090.9973,-0.1355,0.1088,-0.9683,1.619,-6.221,-2.004
1772978881090.9973,-0.1332,0.1088,-0.967,1.61,-6.107,-2.179
1772978881090.9973,-0.1376,0.107,-0.967,1.811,-6.16,-1.986
1772978881090.9973,-0.1344,0.1102,-0.9644,1.636,-6.116,-2.284
1772978881090.9973,-0.1341,0.1086,-0.9664,1.645,-6.247,-2.161
1772978881106.182,-0.1354,0.109,-0.964,1.671,-5.985,-2.047
1772978881106.182,-0.1355,0.1096,-0.9671,1.383,-5.906,-2.345
1772978881106.182,-0.1355,0.1095,-0.9679,1.505,-5.836,-2.24
1772978881106.182,-0.1355,0.1105,-0.9672,1.645,-6.125,-2.275
1772978881106.182,-0.1343,0.1093,-0.9668,1.759,-6.16,-2.362
1772978881106.182,-0.1338,0.1083,-0.967,1.732,-5.819,-2.371
1772978881106.182,-0.1351,0.1108,-0.9648,1.706,-5.582,-2.188
1772978881106.182,-0.1344,0.1104,-0.9682,1.969,-5.74,-2.546
1772978881106.182,-0.1344,0.1118,-0.9668,1.881,-5.81,-2.345
1772978881106.182,-0.1321,0.1104,-0.9692,2.03,-5.705,-2.083
1772978881106.182,-0.134,0.1097,-0.9679,2.065,-5.399,-2.188
1772978881106.182,-0.1319,0.1088,-0.9659,2.118,-5.504,-2.66
1772978881121.9688,-0.1315,0.1111,-0.9668,2.38,-5.53,-2.275
1772978881121.9688,-0.1337,0.111,-0.9667,2.476,-5.399,-2.257
1772978881121.9688,-0.1318,0.1114,-0.9671,2.266,-5.53,-2.292
1772978881121.9688,-0.1303,0.1111,-0.9668,2.205,-5.416,-2.161
1772978881121.9688,-0.1309,0.1089,-0.968,2.433,-5.101,-2.161
1772978881121.9688,-0.1331,0.1106,-0.9684,2.643,-5.311,-2.021
1772978881121.9688,-0.1333,0.1112,-0.969,2.774,-5.136,-1.881
1772978881121.9688,-0.1327,0.1093,-0.9686,2.922,-5.224,-2.03
1772978881121.9688,-0.1299,0.1119,-0.9693,2.905,-4.874,-1.706
1772978881121.9688,-0.1304,0.1128,-0.965,2.809,-5.145,-1.732
1772978881121.9688,-0.1321,0.1093,-0.9698,2.922,-5.04,-1.82
1772978881121.9688,-0.1295,0.1126,-0.9698,3.027,-5.005,-1.575
1772978881121.9688,-0.1277,0.1116,-0.9685,2.949,-5.171,-1.68
1772978881137.7817,-0.1297,0.1105,-0.9672,3.377,-4.987,-1.558
1772978881137.7817,-0.1298,0.1113,-0.9693,3.071,-5.005,-1.584
1772978881137.7817,-0.1297,0.1118,-0.9688,3.377,-4.848,-1.645
1772978881137.7817,-0.1299,0.1111,-0.9664,3.421,-5.066,-1.531
1772978881137.7817,-0.1271,0.1115,-0.9686,3.439,-5.022,-1.461
1772978881137.7817,-0.128,0.1107,-0.9689,3.281,-5.18,-1.522
1772978881137.7817,-0.1262,0.1122,-0.967,3.255,-5.093,-1.593
1772978881137.7817,-0.1261,0.1114,-0.9688,3.264,-4.9,-1.531
1772978881137.7817,-0.1274,0.1121,-0.9676,3.229,-4.638,-1.444
1772978881137.7817,-0.126,0.1118,-0.9698,3.299,-4.83,-1.356
1772978881137.7817,-0.1263,0.1109,-0.9684,3.325,-4.935,-1.321
1772978881137.7817,-0.1258,0.1099,-0.9688,3.474,-4.769,-1.181
1772978881137.7817,-0.1253,0.1088,-0.9661,3.421,-4.9,-1.137
1772978881153.7017,-0.1265,0.1102,-0.9669,3.561,-5.066,-1.076
1772978881153.7017,-0.1253,0.1116,-0.9668,3.491,-5.18,-1.278
1772978881153.7017,-0.1265,0.1119,-0.9665,3.579,-5.241,-1.111
1772978881153.7017,-0.1257,0.1089,-0.9673,3.421,-4.821,-1.146
1772978881153.7017,-0.1249,0.1081,-0.9675,3.237,-4.865,-1.059
1772978881153.7017,-0.1279,0.112,-0.9672,3.509,-5.145,-1.12
1772978881153.7017,-0.1251,0.1099,-0.9675,3.666,-5.303,-1.181
1772978881153.7017,-0.1244,0.1097,-0.966,3.666,-5.381,-1.208
1772978881153.7017,-0.1256,0.1097,-0.968,3.649,-5.145,-0.954
1772978881153.7017,-0.1257,0.1093,-0.9658,3.57,-5.215,-0.998
1772978881153.7017,-0.1263,0.1113,-0.9651,3.544,-5.206,-1.137
1772978881153.7017,-0.1258,0.1077,-0.9683,3.692,-5.04,-0.936
1772978881153.7017,-0.1276,0.1079,-0.9676,3.763,-5.136,-0.963
1772978881169.233,-0.1261,0.1094,-0.9653,3.719,-5.276,-0.927
1772978881169.233,-0.1268,0.1069,-0.9643,3.684,-5.364,-1.024
1772978881169.233,-0.1272,0.1073,-0.9655,3.745,-4.996,-0.971
1772978881169.233,-0.1266,0.106,-0.966,3.719,-5.338,-1.094
1772978881169.233,-0.1241,0.108,-0.9632,3.771,-5.066,-1.05
1772978881169.233,-0.1263,0.1083,-0.9656,4.051,-5.582,-0.945
1772978881169.233,-0.1268,0.1079,-0.9645,4.034,-5.758,-0.919
1772978881169.233,-0.1274,0.1107,-0.9664,3.719,-5.696,-1.015
1772978881169.233,-0.1274,0.1074,-0.967,3.728,-5.591,-1.111
1772978881169.233,-0.1296,0.1091,-0.9667,3.894,-5.591,-1.059
1772978881169.233,-0.1277,0.1064,-0.9655,3.797,-5.539,-1.164
1772978881169.233,-0.1289,0.1069,-0.9665,3.85,-5.617,-0.84
1772978881169.233,-0.1262,0.1083,-0.9671,3.981,-5.688,-0.805
1772978881185.0332,-0.1291,0.106,-0.9651,4.016,-5.6,-0.998
1772978881185.0332,-0.1277,0.1072,-0.9645,3.894,-5.871,-1.024
1772978881185.0332,-0.1269,0.1044,-0.9676,3.771,-5.731,-0.936
1772978881185.0332,-0.1272,0.1063,-0.9654,3.745,-5.976,-0.884
1772978881185.0332,-0.1283,0.1031,-0.9669,3.684,-5.705,-0.927
1772978881185.0332,-0.1281,0.106,-0.9679,3.64,-5.845,-0.971
1772978881185.0332,-0.1302,0.1061,-0.9663,3.535,-5.705,-0.945
1772978881185.0332,-0.1287,0.1055,-0.9654,3.684,-5.784,-1.059
1772978881185.0332,-0.1285,0.1045,-0.9659,3.666,-5.976,-1.129
1772978881185.0332,-0.1283,0.1053,-0.9661,3.57,-5.959,-1.19
1772978881185.0332,-0.1276,0.1042,-0.9656,3.447,-5.88,-1.208
1772978881185.0332,-0.1289,0.1047,-0.967,3.71,-6.072,-1.286
1772978881200.2485,-0.1286,0.1037,-0.9686,3.29,-6.064,-1.488
1772978881200.2485,-0.13,0.1036,-0.9655,3.43,-6.02,-1.251
1772978881200.2485,-0.1296,0.1022,-0.9655,3.675,-6.353,-1.312
1772978881200.2485,-0.1286,0.1022,-0.9689,3.325,-6.221,-1.286
1772978881200.2485,-0.1288,0.1041,-0.9661,3.246,-6.169,-1.286
1772978881200.2485,-0.1286,0.1035,-0.9653,2.94,-5.994,-1.251
1772978881200.2485,-0.1284,0.1039,-0.9678,3.098,-6.046,-1.417
1772978881200.2485,-0.129,0.104,-0.9672,3.106,-6.3,-1.208
1772978881200.2485,-0.1312,0.1049,-0.9699,2.94,-6.291,-1.409
1772978881200.2485,-0.1277,0.1052,-0.967,2.765,-6.16,-1.505
1772978881200.2485,-0.13,0.1039,-0.9685,2.651,-6.204,-1.479
1772978881200.2485,-0.1286,0.1049,-0.9658,2.73,-6.326,-1.199
1772978881200.2485,-0.128,0.1053,-0.9668,2.485,-6.326,-1.286
1772978881216.2517,-0.1283,0.1066,-0.969,2.45,-6.247,-1.566
1772978881216.2517,-0.1276,0.1072,-0.9672,2.686,-6.055,-1.54
1772978881216.2517,-0.1287,0.1062,-0.9684,2.643,-6.125,-1.461
1772978881216.2517,-0.1288,0.1067,-0.9706,2.485,-6.344,-1.391
1772978881216.2517,-0.1271,0.1069,-0.967,2.45,-6.388,-1.339
1772978881216.2517,-0.1284,0.1064,-0.9685,2.529,-6.633,-1.522
1772978881216.2517,-0.1272,0.1071,-0.9686,2.581,-6.58,-1.636
1772978881216.2517,-0.1297,0.1079,-0.9699,2.266,-6.449,-1.479
1772978881216.2517,-0.1304,0.1099,-0.9712,2.292,-6.527,-1.575
1772978881216.2517,-0.1283,0.1088,-0.971,2.45,-6.265,-1.452
1772978881216.2517,-0.1264,0.11,-0.9693,2.389,-6.388,-1.54
1772978881216.2517,-0.1286,0.1114,-0.9697,2.275,-6.51,-1.391
1772978881216.2517,-0.1286,0.1101,-0.9712,2.179,-6.694,-1.645
1772978881232.057,-0.1279,0.1094,-0.97,2.152,-6.466,-1.89
1772978881232.057,-0.1269,0.11,-0.972,2.188,-6.746,-1.706
1772978881232.057,-0.1279,0.1098,-0.9696,2.196,-6.772,-1.846
1772978881232.057,-0.1286,0.1113,-0.9719,2.179,-6.991,-1.942
1772978881232.057,-0.129,0.1108,-0.9693,2.266,-6.834,-1.846
1772978881232.057,-0.1304,0.1109,-0.9692,2.118,-6.641,-1.724
1772978881232.057,-0.1279,0.1109,-0.9694,2.319,-6.633,-1.873
1772978881232.057,-0.128,0.1126,-0.9689,2.319,-6.869,-1.916
1772978881232.057,-0.1282,0.1112,-0.9686,2.135,-6.843,-2.03
1772978881232.057,-0.1252,0.1114,-0.9653,2.223,-7.018,-2.065
1772978881232.057,-0.127,0.1115,-0.9666,2.118,-7.026,-1.907
1772978881232.057,-0.1291,0.1116,-0.9676,2.126,-6.799,-1.951
1772978881232.057,-0.1284,0.1107,-0.964,2.319,-6.947,-1.951
1772978881248.3013,-0.1282,0.1102,-0.9634,2.45,-6.755,-1.776
1772978881248.3013,-0.1292,0.1127,-0.9657,2.24,-6.58,-2.047
1772978881248.3013,-0.129,0.1135,-0.9657,2.354,-6.947,-1.916
1772978881248.3013,-0.1297,0.1146,-0.9618,2.397,-6.536,-1.794
1772978881248.3013,-0.1296,0.1121,-0.9621,2.546,-6.702,-2.047
1772978881248.3013,-0.1311,0.1138,-0.9598,2.362,-6.247,-1.925
1772978881248.3013,-0.1301,0.1131,-0.963,2.52,-6.388,-1.951
1772978881248.3013,-0.1296,0.1122,-0.9579,2.607,-6.58,-1.978
1772978881248.3013,-0.1297,0.1135,-0.9586,2.485,-6.484,-1.934
1772978881248.3013,-0.1286,0.1125,-0.9581,2.651,-6.116,-2.091
1772978881248.3013,-0.1308,0.1121,-0.9593,2.52,-6.326,-2.074
1772978881248.3013,-0.1299,0.111,-0.9556,2.625,-5.968,-2.039
1772978881248.3013,-0.1294,0.1107,-0.9589,2.721,-6.029,-1.995
1772978881264.7979,-0.1308,0.113,-0.9579,2.686,-5.924,-2.152
1772978881264.7979,-0.1326,0.1116,-0.9561,2.8,-5.88,-2.292
1772978881264.7979,-0.1321,0.1125,-0.9572,2.695,-5.407,-2.109
1772978881264.7979,-0.1296,0.1123,-0.9564,2.555,-5.338,-2.17
1772978881264.7979,-0.1308,0.1126,-0.9578,2.38,-5.285,-2.109
1772978881264.7979,-0.1308,0.1096,-0.9562,2.38,-5.075,-1.855
1772978881264.7979,-0.1313,0.1123,-0.9582,2.564,-4.996,-1.951
1772978881264.7979,-0.1291,0.1094,-0.9564,2.52,-5.189,-1.969
1772978881264.7979,-0.1318,0.1107,-0.9556,2.223,-4.795,-2.083
1772978881264.7979,-0.1305,0.1111,-0.955,2.607,-4.734,-2.047
1772978881264.7979,-0.1313,0.1089,-0.9575,2.678,-4.69,-1.942
1772978881264.7979,-0.1324,0.111,-0.9581,2.949,-4.629,-1.986
1772978881264.7979,-0.1286,0.1093,-0.9572,2.415,-4.314,-1.785
1772978881280.9443,-0.1305,0.1108,-0.9582,2.389,-4.375,-1.776
1772978881280.9443,-0.129,0.1105,-0.9612,2.433,-4.419,-1.907
1772978881280.9443,-0.1327,0.1094,-0.9612,2.467,-4.13,-1.925
1772978881280.9443,-0.1318,0.1107,-0.9584,2.695,-3.981,-1.925
1772978881280.9443,-0.1319,0.1102,-0.9621,2.546,-3.894,-1.575
1772978881280.9443,-0.1297,0.1113,-0.9606,2.607,-3.745,-1.75
1772978881280.9443,-0.1316,0.1103,-0.9629,2.607,-3.824,-1.601
1772978881280.9443,-0.1296,0.1101,-0.9628,2.791,-3.64,-1.558
1772978881280.9443,-0.1283,0.1094,-0.9629,2.826,-3.587,-1.514
1772978881280.9443,-0.1285,0.1106,-0.9631,3.045,-3.596,-1.531
1772978881280.9443,-0.1285,0.1092,-0.9662,2.8,-3.666,-1.435
1772978881280.9443,-0.1297,0.1096,-0.9664,2.922,-3.789,-1.391
1772978881280.9443,-0.1308,0.1122,-0.967,3.045,-3.885,-1.61
1772978881296.895,-0.1293,0.1102,-0.967,2.966,-3.789,-1.522
1772978881296.895,-0.1285,0.1102,-0.9697,3.054,-3.623,-1.549
1772978881296.895,-0.1299,0.1122,-0.9694,3.272,-3.868,-1.461
1772978881296.895,-0.1303,0.1115,-0.9723,3.491,-4.296,-1.409
1772978881296.895,-0.1318,0.1113,-0.9748,3.587,-4.165,-1.522
1772978881296.895,-0.1333,0.1114,-0.975,3.509,-3.981,-1.417
1772978881296.895,-0.1294,0.1145,-0.9769,3.535,-4.121,-1.417
1772978881296.895,-0.132,0.1118,-0.9765,3.692,-4.707,-1.575
1772978881296.895,-0.1297,0.113,-0.9782,3.745,-4.384,-1.479
1772978881296.895,-0.1332,0.1125,-0.9794,3.92,-4.576,-1.514
1772978881296.895,-0.1333,0.1122,-0.9786,4.112,-4.856,-1.444
1772978881296.895,-0.1337,0.1132,-0.9786,4.077,-4.804,-1.514
1772978881296.895,-0.1322,0.1114,-0.9785,4.2,-5.101,-1.759
1772978881312.2078,-0.1333,0.1108,-0.9833,4.165,-5.407,-1.68
1772978881312.2078,-0.1327,0.1124,-0.9815,4.41,-5.329,-1.531
1772978881312.2078,-0.1346,0.1111,-0.98,4.419,-5.688,-1.654
1772978881312.2078,-0.1366,0.1096,-0.9811,4.524,-6.011,-1.829
1772978881312.2078,-0.1345,0.11,-0.9809,4.646,-6.186,-1.873
1772978881312.2078,-0.1374,0.1107,-0.976,4.629,-6.396,-1.636
1772978881312.2078,-0.1358,0.1097,-0.9793,4.638,-6.764,-1.873
1772978881312.2078,-0.1346,0.1105,-0.9782,4.471,-6.816,-1.846
1772978881312.2078,-0.1347,0.1098,-0.9792,4.655,-7.035,-1.802
1772978881312.2078,-0.1351,0.1103,-0.9764,4.541,-7.376,-1.715
1772978881312.2078,-0.1346,0.1092,-0.9761,4.322,-7.184,-1.951
1772978881312.2078,-0.136,0.1088,-0.9726,4.471,-7.035,-1.811
1772978881327.597,-0.1335,0.1092,-0.9727,4.375,-7.157,-2.013
1772978881327.597,-0.1357,0.1086,-0.9731,4.322,-7.166,-2.03
1772978881327.597,-0.1353,0.1071,-0.97,4.209,-7.473,-2.065
1772978881327.597,-0.1338,0.1064,-0.9692,4.016,-7.928,-2.013
1772978881327.597,-0.1358,0.1063,-0.9677,3.999,-7.691,-2.004
1772978881327.597,-0.1346,0.105,-0.967,3.833,-7.464,-2.065
1772978881327.597,-0.1349,0.104,-0.9652,3.692,-7.525,-1.995
1772978881327.597,-0.1351,0.1032,-0.9677,3.386,-7.639,-2.091
1772978881327.597,-0.1329,0.1005,-0.9663,3.456,-7.595,-2.056
1772978881327.597,-0.1344,0.1007,-0.9643,3.229,-7.446,-1.942
1772978881327.597,-0.1317,0.0997,-0.9641,3.203,-7.376,-1.654
1772978881327.597,-0.1338,0.0989,-0.9645,2.888,-7.63,-1.75
1772978881327.597,-0.1328,0.0959,-0.9599,2.599,-7.674,-1.75
1772978881342.619,-0.1305,0.0956,-0.9627,2.721,-7.411,-1.689
1772978881342.619,-0.1327,0.0939,-0.9628,2.45,-7.166,-1.426
1772978881342.619,-0.1316,0.095,-0.9624,2.266,-6.781,-1.103
1772978881342.619,-0.132,0.0947,-0.9641,2.091,-7.026,-1.006
1772978881342.619,-0.1321,0.0953,-0.9635,2.056,-6.755,-0.787
1772978881342.619,-0.1335,0.0939,-0.9671,2.065,-6.545,-0.892
1772978881342.619,-0.1309,0.0928,-0.9628,2.126,-6.536,-0.901
1772978881342.619,-0.1332,0.0927,-0.9665,1.934,-6.676,-0.761
1772978881342.619,-0.1305,0.0965,-0.9672,1.698,-6.116,-0.761
1772978881342.619,-0.1315,0.0961,-0.9667,1.706,-6.239,-0.551
1772978881342.619,-0.1309,0.0963,-0.9693,1.82,-6.221,-0.691
1772978881342.619,-0.133,0.0998,-0.9701,1.969,-6.317,-0.42
1772978881358.4546,-0.1318,0.0991,-0.9729,1.995,-6.134,-0.534
1772978881358.4546,-0.1299,0.1013,-0.9725,1.759,-5.976,-0.411
1772978881358.4546,-0.1324,0.1023,-0.9733,2.047,-6.221,-0.525
1772978881358.4546,-0.1327,0.1038,-0.9761,1.995,-6.081,-0.525
1772978881358.4546,-0.1334,0.1046,-0.9754,2.231,-6.055,-0.542
1772978881358.4546,-0.1326,0.1075,-0.9775,2.748,-6.282,-0.516
1772978881358.4546,-0.1308,0.1091,-0.9797,2.861,-6.107,-0.647
1772978881358.4546,-0.131,0.1091,-0.9781,2.704,-6.116,-0.805
1772978881358.4546,-0.131,0.111,-0.9797,2.87,-6.247,-0.936
1772978881358.4546,-0.1327,0.1114,-0.9801,2.87,-6.221,-1.103
1772978881358.4546,-0.1305,0.113,-0.9781,2.905,-6.213,-1.339
1772978881358.4546,-0.132,0.1129,-0.9783,3.203,-6.396,-1.295
1772978881358.4546,-0.1294,0.1132,-0.9798,3.229,-6.44,-1.645
1772978881373.6523,-0.1326,0.1102,-0.9797,3.308,-6.256,-1.768
1772978881373.6523,-0.1299,0.1116,-0.9782,3.36,-6.44,-1.75
1772978881373.6523,-0.1316,0.1143,-0.979,3.614,-6.878,-1.82
1772978881373.6523,-0.13,0.1139,-0.9749,3.386,-6.536,-1.942
1772978881373.6523,-0.1286,0.1128,-0.9747,3.675,-6.816,-2.091
1772978881373.6523,-0.1278,0.1141,-0.9737,3.526,-6.737,-2.004
1772978881373.6523,-0.1257,0.113,-0.973,3.447,-6.851,-2.004
1772978881373.6523,-0.1265,0.1123,-0.9727,3.43,-6.615,-2.205
1772978881373.6523,-0.1246,0.1115,-0.9679,3.395,-6.816,-2.441
1772978881373.6523,-0.1269,0.1129,-0.9687,3.325,-6.912,-2.354
1772978881373.6523,-0.1259,0.1122,-0.9693,3.395,-6.746,-2.441
1772978881373.6523,-0.1258,0.1102,-0.9693,3.465,-6.895,-2.546
1772978881389.195,-0.1251,0.1091,-0.9693,3.15,-6.781,-2.345
1772978881389.195,-0.1233,0.1075,-0.9667,2.879,-6.729,-2.083
1772978881389.195,-0.1238,0.1069,-0.9656,3.062,-6.764,-2.144
1772978881389.195,-0.1236,0.1082,-0.9649,2.958,-6.86,-2.223
1772978881389.195,-0.1243,0.1066,-0.9662,2.739,-6.633,-2.144
1772978881389.195,-0.1253,0.1084,-0.9637,2.817,-6.991,-1.899
1772978881389.195,-0.124,0.1071,-0.9645,2.8,-7.21,-1.995
1772978881389.195,-0.1249,0.1065,-0.9631,2.739,-6.904,-1.925
1772978881389.195,-0.1241,0.1059,-0.9658,2.284,-6.746,-2.021
1772978881389.195,-0.1252,0.1075,-0.9617,2.24,-6.86,-1.899
1772978881389.195,-0.125,0.1064,-0.9628,2.319,-6.939,-1.873
1772978881389.195,-0.1236,0.1057,-0.9597,2.284,-6.668,-1.776
1772978881389.195,-0.1244,0.1064,-0.962,2.284,-6.799,-1.479
1772978881404.7732,-0.1247,0.1078,-0.9626,2.109,-6.729,-1.479
1772978881404.7732,-0.1249,0.1076,-0.9632,1.986,-6.606,-1.627
1772978881404.7732,-0.1269,0.1091,-0.9638,2.013,-6.755,-1.347
1772978881404.7732,-0.1257,0.1093,-0.9603,1.82,-6.72,-1.304
1772978881404.7732,-0.1271,0.1082,-0.9625,2.004,-6.414,-1.304
1772978881404.7732,-0.1285,0.1099,-0.9598,2.275,-6.309,-1.234
1772978881404.7732,-0.1268,0.1093,-0.9633,2.1,-6.353,-1.251
1772978881404.7732,-0.1279,0.1105,-0.9612,2.083,-6.046,-1.067
1772978881404.7732,-0.1291,0.1105,-0.962,2.144,-6.317,-1.234
1772978881404.7732,-0.131,0.1106,-0.9626,1.951,-6.221,-1.173
1772978881404.7732,-0.1293,0.1117,-0.9625,2.38,-6.072,-1.111
1772978881404.7732,-0.1296,0.1117,-0.9592,2.179,-6.239,-1.216
1772978881404.7732,-0.1318,0.113,-0.9615,2.31,-6.099,-1.26
1772978881420.5056,-0.1322,0.1124,-0.9633,2.721,-6.055,-1.242
1772978881420.5056,-0.1308,0.1126,-0.962,2.958,-6.064,-1.067
1772978881420.5056,-0.1318,0.114,-0.9661,2.931,-5.819,-0.927
1772978881420.5056,-0.132,0.112,-0.964,2.984,-5.941,-1.067
1772978881420.5056,-0.1351,0.1124,-0.9666,3.281,-5.705,-1.05
1772978881420.5056,-0.1335,0.1133,-0.9679,3.141,-5.556,-0.691
1772978881420.5056,-0.1351,0.116,-0.9658,3.43,-5.25,-0.578
1772978881420.5056,-0.1369,0.1142,-0.9682,3.745,-5.6,-0.613
1772978881420.5056,-0.1365,0.1126,-0.9678,3.859,-5.39,-0.621
1772978881420.5056,-0.136,0.1146,-0.9679,4.34,-5.162,-0.674
1772978881420.5056,-0.1361,0.1136,-0.9673,4.183,-5.11,-0.761
1772978881420.5056,-0.1374,0.1148,-0.9697,4.393,-5.066,-0.787
1772978881435.856,-0.1377,0.115,-0.9714,4.576,-5.049,-0.665
1772978881435.856,-0.1401,0.1158,-0.9706,4.629,-4.952,-0.464
1772978881435.856,-0.1396,0.1124,-0.9686,4.804,-4.944,-0.639
1772978881435.856,-0.1392,0.1131,-0.9703,5.075,-4.865,-0.7
1772978881435.856,-0.1387,0.1149,-0.9687,5.364,-4.97,-0.849
1772978881435.856,-0.1393,0.1162,-0.9687,5.294,-4.856,-0.849
1772978881435.856,-0.1401,0.1139,-0.9701,5.46,-4.742,-0.542
1772978881435.856,-0.1373,0.1147,-0.9694,5.827,-4.629,-0.56
1772978881435.856,-0.1383,0.111,-0.9676,5.714,-4.419,-0.709
1772978881435.856,-0.1402,0.1157,-0.9695,5.661,-4.305,-0.691
1772978881435.856,-0.1394,0.113,-0.9658,5.556,-4.34,-0.586
1772978881435.856,-0.1403,0.1123,-0.963,5.906,-4.287,-0.744
1772978881435.856,-0.1397,0.1114,-0.9662,6.003,-4.279,-0.823
1772978881451.5864,-0.1396,0.1109,-0.9621,6.003,-4.253,-1.05
1772978881451.5864,-0.1406,0.1107,-0.9638,5.985,-4.401,-0.726
1772978881451.5864,-0.1401,0.111,-0.9603,6.081,-4.287,-0.866
1772978881451.5864,-0.14,0.1091,-0.9615,6.204,-3.964,-0.805
1772978881451.5864,-0.1401,0.1089,-0.9572,6.186,-4.016,-0.691
1772978881451.5864,-0.1398,0.1093,-0.9547,6.116,-4.174,-0.919
1772978881451.5864,-0.1381,0.1071,-0.959,5.959,-4.296,-0.998
1772978881451.5864,-0.1388,0.1039,-0.9561,5.994,-4.2,-0.796
1772978881451.5864,-0.1407,0.1044,-0.955,5.862,-3.999,-0.779
1772978881451.5864,-0.1416,0.1036,-0.9529,5.582,-3.973,-0.831
1772978881451.5864,-0.1382,0.1035,-0.9498,5.53,-3.701,-0.875
1772978881451.5864,-0.138,0.1018,-0.9504,5.661,-3.894,-0.963
1772978881451.5864,-0.1396,0.1033,-0.95,5.364,-3.631,-0.963
1772978881467.2378,-0.1381,0.1019,-0.9514,5.18,-3.404,-0.971
1772978881467.2378,-0.1391,0.1005,-0.9487,5.031,-3.535,-0.84
1772978881467.2378,-0.1407,0.1019,-0.9483,4.795,-3.474,-1.032
1772978881467.2378,-0.1393,0.1005,-0.949,4.716,-3.518,-0.761
1772978881467.2378,-0.1388,0.1017,-0.9464,4.891,-3.141,-0.752
1772978881467.2378,-0.1397,0.1016,-0.9483,4.419,-3.001,-1.05
1772978881467.2378,-0.1406,0.0995,-0.9467,4.235,-3.132,-1.015
1772978881467.2378,-0.1383,0.1004,-0.9484,4.253,-2.8,-0.954
1772978881467.2378,-0.138,0.0995,-0.9498,3.99,-2.87,-1.006
1772978881467.2378,-0.1373,0.1,-0.9483,3.824,-2.817,-0.884
1772978881467.2378,-0.1388,0.0979,-0.9495,3.763,-2.853,-0.787
1772978881467.2378,-0.136,0.0981,-0.9514,3.806,-2.826,-0.927
1772978881482.826,-0.1379,0.0991,-0.9515,3.649,-2.66,-0.823
1772978881482.826,-0.1368,0.1005,-0.9501,3.658,-2.572,-0.787
1772978881482.826,-0.1353,0.1005,-0.9562,3.421,-2.546,-0.787
1772978881482.826,-0.1337,0.1008,-0.9533,3.176,-2.809,-0.866
1772978881482.826,-0.1368,0.1016,-0.9568,3.272,-2.529,-0.823
1772978881482.826,-0.1333,0.1038,-0.9586,3.369,-2.748,-0.919
1772978881482.826,-0.1338,0.1047,-0.9603,3.272,-2.914,-0.901
1772978881482.826,-0.1347,0.1034,-0.9629,3.264,-2.905,-0.919
1772978881482.826,-0.1342,0.1035,-0.9664,3.194,-3.071,-0.796
1772978881482.826,-0.1329,0.1065,-0.9683,3.08,-3.062,-0.805
1772978881482.826,-0.1323,0.1049,-0.9673,3.255,-3.342,-1.059
1772978881482.826,-0.1327,0.1042,-0.969,3.474,-3.526,-1.041
1772978881482.826,-0.1314,0.1048,-0.971,3.447,-3.92,-1.067
1772978881498.1667,-0.1282,0.1069,-0.9719,3.474,-3.99,-1.234
1772978881498.1667,-0.1301,0.1056,-0.9758,3.465,-3.902,-1.199
1772978881498.1667,-0.1287,0.1058,-0.9759,3.596,-4.147,-1.295
1772978881498.1667,-0.1272,0.1072,-0.9753,3.649,-4.445,-1.242
1772978881498.1667,-0.1262,0.109,-0.9769,3.684,-4.786,-1.216
1772978881498.1667,-0.125,0.1068,-0.9806,3.719,-4.9,-1.54
1772978881498.1667,-0.1262,0.108,-0.9794,3.666,-5.18,-1.435
1772978881498.1667,-0.1247,0.107,-0.9826,3.71,-5.591,-1.636
1772978881498.1667,-0.1225,0.1092,-0.9859,3.623,-5.731,-1.531
1772978881498.1667,-0.1246,0.1049,-0.9841,3.64,-5.819,-1.654
1772978881498.1667,-0.1232,0.1093,-0.9852,3.763,-6.064,-1.689
1772978881498.1667,-0.1193,0.1066,-0.9871,3.876,-6.598,-1.68
1772978881513.3691,-0.1222,0.1076,-0.9845,3.771,-6.912,-1.759
1772978881513.3691,-0.1221,0.1097,-0.9858,3.824,-7.315,-1.978
1772978881513.3691,-0.121,0.1085,-0.987,3.885,-7.674,-2.188
1772978881513.3691,-0.1191,0.1082,-0.9882,3.85,-7.744,-2.074
1772978881513.3691,-0.1191,0.1105,-0.9873,3.728,-8.068,-2.135
1772978881513.3691,-0.1168,0.1087,-0.991,3.841,-8.435,-2.24
1772978881513.3691,-0.1197,0.1088,-0.9837,3.684,-8.776,-1.969
1772978881513.3691,-0.1164,0.1089,-0.9841,3.675,-9.223,-2.319
1772978881513.3691,-0.1182,0.1094,-0.9861,3.587,-9.765,-2.257
1772978881513.3691,-0.1177,0.1086,-0.9864,3.474,-9.537,-2.179
