Time_ms,ax,ay,az
1772930396478.204,0.0064,-0.6951,-0.6897
1772930396478.204,0.0082,-0.6942,-0.6898
1772930396493.4446,0.0082,-0.6931,-0.6952
1772930396493.4446,0.0071,-0.6881,-0.6915
1772930396493.4446,0.0096,-0.6884,-0.6939
1772930396493.4446,0.0101,-0.6852,-0.6934
1772930396493.4446,0.0113,-0.6872,-0.6909
1772930396493.4446,0.0113,-0.6858,-0.6924
1772930396493.4446,0.0127,-0.687,-0.6922
1772930396493.4446,0.0152,-0.6866,-0.6899
1772930396509.036,0.0125,-0.6863,-0.6894
1772930396509.036,0.0141,-0.6861,-0.6884
1772930396509.036,0.0165,-0.6866,-0.6904
1772930396509.036,0.031,-0.688,-0.6902
1772930396509.036,0.0182,-0.688,-0.6918
1772930396509.036,0.0171,-0.6882,-0.6889
1772930396509.036,0.017,-0.6877,-0.6871
1772930396509.036,0.0188,-0.6869,-0.6837
1772930396524.9023,0.0228,-0.6867,-0.6828
1772930396524.9023,0.0249,-0.6898,-0.6859
1772930396524.9023,0.0253,-0.6877,-0.684
1772930396524.9023,0.0246,-0.6881,-0.6828
1772930396524.9023,0.0273,-0.6882,-0.6808
1772930396524.9023,0.0279,-0.688,-0.6802
1772930396524.9023,0.0295,-0.6888,-0.682
1772930396524.9023,0.0257,-0.6906,-0.6806
1772930396540.964,0.0265,-0.6932,-0.68
1772930396540.964,0.0262,-0.6954,-0.6814
1772930396540.964,0.024,-0.6973,-0.6827
1772930396540.964,0.0209,-0.6945,-0.6846
1772930396540.964,0.0237,-0.6958,-0.6841
1772930396540.964,0.0226,-0.6962,-0.6819
1772930396540.964,0.0244,-0.6992,-0.6808
1772930396540.964,0.0248,-0.6988,-0.679
1772930396557.0679,0.0212,-0.6995,-0.68
1772930396557.0679,0.0192,-0.7043,-0.6766
1772930396557.0679,0.0182,-0.7047,-0.6827
1772930396557.0679,0.0138,-0.7052,-0.6815
1772930396557.0679,0.0112,-0.7052,-0.6844
1772930396573.2827,0.0108,-0.7037,-0.6863
1772930396573.2827,0.0098,-0.7022,-0.6839
1772930396573.2827,0.0043,-0.7019,-0.6915
1772930396573.2827,0.0043,-0.7,-0.6727
1772930396573.2827,0.0041,-0.6995,-0.6875
1772930396573.2827,0.004,-0.6967,-0.6929
1772930396573.2827,0.0032,-0.7003,-0.693
1772930396573.2827,0.0003,-0.6969,-0.6933
1772930396589.342,0.0002,-0.6955,-0.6925
1772930396589.342,0.0007,-0.6953,-0.6954
1772930396589.342,-0.0022,-0.6949,-0.6935
1772930396589.342,-0.0015,-0.6909,-0.6966
1772930396589.342,0.0,-0.6913,-0.6951
1772930396589.342,-0.0018,-0.692,-0.6944
1772930396589.342,0.0018,-0.6914,-0.6947
1772930396589.342,0.0032,-0.6898,-0.696
1772930396604.57,0.0091,-0.688,-0.6927
1772930396604.57,0.0086,-0.6905,-0.6899
1772930396604.57,0.0104,-0.6911,-0.6918
1772930396604.57,0.0131,-0.6931,-0.6859
1772930396604.57,0.0129,-0.6963,-0.6833
1772930396604.57,0.0162,-0.7028,-0.6719
1772930396604.57,0.0217,-0.7092,-0.6644
1772930396604.57,0.0218,-0.7088,-0.6651
1772930396620.0762,0.0256,-0.7057,-0.6661
1772930396620.0762,0.0289,-0.7038,-0.6742
1772930396620.0762,0.0192,-0.6976,-0.6686
1772930396620.0762,0.0144,-0.6952,-0.6684
1772930396620.0762,0.0152,-0.6889,-0.6737
1772930396620.0762,0.0143,-0.6891,-0.6802
1772930396620.0762,0.0127,-0.6869,-0.6833
1772930396620.0762,0.008,-0.6856,-0.694
1772930396635.722,0.0043,-0.6838,-0.7073
1772930396635.722,0.0012,-0.6809,-0.7111
1772930396635.722,-0.0076,-0.6744,-0.7116
1772930396635.722,-0.0138,-0.6739,-0.7106
1772930396635.722,-0.011,-0.6786,-0.7132
1772930396635.722,-0.0115,-0.6788,-0.7161
1772930396635.722,-0.0072,-0.6781,-0.718
1772930396635.722,0.0001,-0.683,-0.7203
1772930396651.1362,0.0154,-0.6842,-0.7191
1772930396651.1362,0.0065,-0.6828,-0.7174
1772930396651.1362,0.0093,-0.6817,-0.715
1772930396651.1362,0.0154,-0.6791,-0.7122
1772930396651.1362,0.0171,-0.6796,-0.7079
1772930396666.5762,0.0204,-0.6784,-0.709
1772930396666.5762,0.0221,-0.6749,-0.7056
1772930396666.5762,0.0204,-0.6765,-0.7036
1772930396666.5762,0.0226,-0.6811,-0.695
1772930396666.5762,0.0265,-0.687,-0.6856
1772930396666.5762,0.0284,-0.6909,-0.6826
1772930396666.5762,0.0311,-0.7004,-0.6812
1772930396666.5762,0.0319,-0.7041,-0.6778
1772930396682.2183,0.0298,-0.7041,-0.6757
1772930396682.2183,0.0276,-0.704,-0.6774
1772930396682.2183,0.0224,-0.7059,-0.6782
1772930396682.2183,0.0181,-0.7081,-0.6771
1772930396682.2183,0.0162,-0.7088,-0.6761
1772930396682.2183,0.0142,-0.7077,-0.6775
1772930396682.2183,0.0093,-0.705,-0.6867
1772930396682.2183,0.0073,-0.7041,-0.6879
1772930396698.1199,0.0034,-0.7025,-0.6952
1772930396698.1199,0.0018,-0.6999,-0.697
1772930396698.1199,-0.0026,-0.6958,-0.702
1772930396698.1199,-0.0024,-0.6932,-0.7063
1772930396698.1199,-0.003,-0.6919,-0.71
1772930396698.1199,-0.0043,-0.6949,-0.7114
1772930396698.1199,-0.0038,-0.6967,-0.7123
1772930396698.1199,-0.0036,-0.6987,-0.7162
1772930396713.224,-0.0009,-0.6999,-0.7159
1772930396713.224,-0.0012,-0.6998,-0.7182
1772930396713.224,0.0011,-0.6999,-0.7208
1772930396713.224,0.0023,-0.6998,-0.7229
1772930396713.224,0.0053,-0.6961,-0.7192
1772930396713.224,0.004,-0.6975,-0.7221
1772930396713.224,0.0059,-0.6987,-0.7174
1772930396713.224,0.0065,-0.6945,-0.7133
1772930396728.6033,0.0121,-0.6904,-0.7099
1772930396728.6033,0.0117,-0.6914,-0.7104
1772930396728.6033,0.0166,-0.6856,-0.7039
1772930396728.6033,0.0198,-0.6889,-0.6992
1772930396728.6033,0.0217,-0.6853,-0.6989
1772930396744.0483,0.0271,-0.69,-0.6956
1772930396744.0483,0.0256,-0.6878,-0.6973
1772930396744.0483,0.0262,-0.6844,-0.6937
1772930396744.0483,0.0246,-0.6878,-0.6927
1772930396744.0483,0.0245,-0.6888,-0.6895
1772930396744.0483,0.0206,-0.6895,-0.6966
1772930396744.0483,0.0171,-0.6956,-0.6984
1772930396744.0483,0.0101,-0.6931,-0.7009
1772930396759.6062,0.0077,-0.6942,-0.7001
1772930396759.6062,0.0032,-0.6959,-0.6959
1772930396759.6062,0.0001,-0.6944,-0.6989
1772930396759.6062,-0.0037,-0.6945,-0.6955
1772930396759.6062,-0.0018,-0.6902,-0.6965
1772930396759.6062,-0.0012,-0.6873,-0.6906
1772930396759.6062,0.0076,-0.6854,-0.6872
1772930396759.6062,0.0132,-0.6809,-0.6866
1772930396775.0117,0.0148,-0.682,-0.6827
1772930396775.0117,0.0176,-0.684,-0.6797
1772930396775.0117,0.0242,-0.6834,-0.6766
1772930396775.0117,0.0262,-0.6848,-0.678
1772930396775.0117,0.0254,-0.688,-0.6759
1772930396775.0117,0.0284,-0.6911,-0.6759
1772930396775.0117,0.0239,-0.6906,-0.676
1772930396775.0117,0.0254,-0.6948,-0.6765
1772930396790.0254,0.0203,-0.693,-0.6802
1772930396790.0254,0.0179,-0.6927,-0.6845
1772930396790.0254,0.0149,-0.692,-0.6852
1772930396790.0254,0.0074,-0.6917,-0.6917
1772930396790.0254,0.0063,-0.6891,-0.6941
1772930396806.115,0.0035,-0.6891,-0.695
1772930396806.115,0.0029,-0.6817,-0.6974
1772930396806.115,0.0044,-0.6805,-0.7002
1772930396806.115,0.003,-0.6777,-0.6969
1772930396806.115,0.0056,-0.6786,-0.6975
1772930396806.115,0.006,-0.677,-0.6964
1772930396806.115,0.0053,-0.674,-0.6933
1772930396806.115,0.0069,-0.6717,-0.6937
1772930396821.6238,0.0101,-0.6736,-0.6941
1772930396821.6238,0.0109,-0.6749,-0.6921
1772930396821.6238,0.0122,-0.6751,-0.6895
1772930396821.6238,0.0144,-0.6759,-0.687
1772930396821.6238,0.0137,-0.6745,-0.688
1772930396821.6238,0.0119,-0.6755,-0.6874
1772930396821.6238,0.0134,-0.6764,-0.6871
1772930396821.6238,0.0134,-0.6777,-0.6892
1772930396838.103,0.0123,-0.678,-0.6903
1772930396838.103,0.015,-0.6794,-0.6867
1772930396838.103,0.0156,-0.6819,-0.6875
1772930396838.103,0.0165,-0.6831,-0.6876
1772930396838.103,0.016,-0.6858,-0.6876
1772930396838.103,0.0134,-0.6884,-0.6877
1772930396838.103,0.016,-0.6873,-0.6893
1772930396838.103,0.0133,-0.69,-0.6874
1772930396853.7366,0.0115,-0.6906,-0.6904
1772930396853.7366,0.0116,-0.6905,-0.6878
1772930396853.7366,0.0106,-0.6915,-0.6876
1772930396853.7366,0.0094,-0.6918,-0.6905
1772930396853.7366,0.0071,-0.6927,-0.6912
1772930396853.7366,0.0065,-0.6914,-0.6959
1772930396853.7366,0.0088,-0.6921,-0.6939
1772930396853.7366,0.0067,-0.6886,-0.6958
1772930396869.0981,0.0091,-0.6872,-0.6952
1772930396869.0981,0.0083,-0.6877,-0.6954
1772930396869.0981,0.011,-0.6853,-0.6986
1772930396869.0981,0.0131,-0.6856,-0.6997
1772930396869.0981,0.0148,-0.6863,-0.7011
1772930396869.0981,0.0167,-0.6863,-0.7019
1772930396869.0981,0.0149,-0.6858,-0.7013
1772930396869.0981,0.0191,-0.6909,-0.7051
1772930396884.7517,0.0167,-0.6893,-0.7037
1772930396884.7517,0.0184,-0.6924,-0.7066
1772930396884.7517,0.0207,-0.6908,-0.7092
1772930396884.7517,0.0181,-0.6881,-0.7147
1772930396884.7517,0.0196,-0.6894,-0.7169
1772930396884.7517,0.0148,-0.6883,-0.7187
1772930396901.013,0.0126,-0.6905,-0.7152
1772930396901.013,0.0129,-0.6905,-0.713
1772930396901.013,0.0137,-0.6916,-0.7114
1772930396901.013,0.0157,-0.6945,-0.7107
1772930396901.013,0.0197,-0.6939,-0.7074
1772930396901.013,0.021,-0.6958,-0.7045
1772930396901.013,0.0215,-0.6963,-0.701
1772930396901.013,0.0237,-0.6972,-0.6968
1772930396916.721,0.0214,-0.697,-0.6956
1772930396916.721,0.0215,-0.6982,-0.6956
1772930396916.721,0.0204,-0.6966,-0.6948
1772930396916.721,0.0206,-0.6974,-0.6948
1772930396916.721,0.0171,-0.6964,-0.6936
1772930396916.721,0.0167,-0.6953,-0.6926
1772930396916.721,0.0149,-0.6927,-0.6945
1772930396916.721,0.0123,-0.6939,-0.6942
1772930396932.83,0.0053,-0.6943,-0.696
1772930396932.83,0.0043,-0.6945,-0.6957
1772930396932.83,0.0059,-0.6958,-0.6967
1772930396932.83,0.0048,-0.6977,-0.6995
1772930396932.83,0.0043,-0.6944,-0.6982
1772930396932.83,0.0035,-0.6939,-0.7016
1772930396932.83,0.0006,-0.6927,-0.7019
1772930396932.83,-0.0001,-0.6933,-0.7053
1772930396948.0283,0.0018,-0.6936,-0.7047
1772930396948.0283,-0.0018,-0.6932,-0.7093
1772930396948.0283,-0.0007,-0.6943,-0.7056
1772930396948.0283,-0.0029,-0.6932,-0.7092
1772930396948.0283,-0.0001,-0.6945,-0.7085
1772930396948.0283,-0.0005,-0.6949,-0.7054
1772930396948.0283,0.0021,-0.6923,-0.7058
1772930396963.6458,0.0076,-0.6963,-0.7058
1772930396963.6458,0.0065,-0.6949,-0.7036
1772930396963.6458,0.0123,-0.6934,-0.7024
1772930396963.6458,0.0146,-0.692,-0.7
1772930396963.6458,0.014,-0.6914,-0.6992
1772930396963.6458,0.0167,-0.6889,-0.6987
1772930396963.6458,0.0173,-0.6898,-0.7
1772930396963.6458,0.0174,-0.6891,-0.6987
1772930396979.6033,0.0204,-0.6892,-0.7006
1772930396979.6033,0.0224,-0.6884,-0.6967
1772930396979.6033,0.0231,-0.7019,-0.697
1772930396979.6033,0.0237,-0.6884,-0.696
1772930396979.6033,0.0246,-0.6871,-0.6968
1772930396979.6033,0.0232,-0.6883,-0.6971
1772930396979.6033,0.0235,-0.6886,-0.6967
1772930396979.6033,0.0227,-0.6888,-0.697
1772930396995.7136,0.0226,-0.6916,-0.6999
1772930396995.7136,0.0198,-0.693,-0.6999
1772930396995.7136,0.0191,-0.6902,-0.7005
1772930396995.7136,0.0203,-0.6907,-0.7
1772930396995.7136,0.0186,-0.6902,-0.6969
1772930396995.7136,0.0201,-0.6922,-0.7028
1772930397011.0332,0.0207,-0.6897,-0.698
1772930397011.0332,0.0179,-0.6904,-0.7013
1772930397011.0332,0.0195,-0.6893,-0.6959
1772930397011.0332,0.0177,-0.6895,-0.6969
1772930397011.0332,0.0224,-0.6878,-0.6955
1772930397011.0332,0.0199,-0.6859,-0.695
1772930397011.0332,0.0162,-0.6859,-0.6953
1772930397011.0332,0.019,-0.6848,-0.6944
1772930397026.3784,0.0204,-0.6859,-0.6927
1772930397026.3784,0.0204,-0.6835,-0.6928
1772930397026.3784,0.0195,-0.6845,-0.6936
1772930397026.3784,0.021,-0.6834,-0.6943
1772930397026.3784,0.0218,-0.6825,-0.6953
1772930397026.3784,0.022,-0.682,-0.6948
1772930397026.3784,0.0231,-0.6832,-0.6952
1772930397026.3784,0.0234,-0.6833,-0.6937
1772930397041.5327,0.0255,-0.6834,-0.6936
1772930397041.5327,0.0251,-0.683,-0.6958
1772930397041.5327,0.0225,-0.6864,-0.6972
1772930397041.5327,0.0243,-0.6879,-0.6962
1772930397041.5327,0.0237,-0.6901,-0.7005
1772930397041.5327,0.0243,-0.6886,-0.6974
1772930397041.5327,0.0231,-0.6917,-0.6971
1772930397041.5327,0.0229,-0.6924,-0.6977
1772930397057.1724,0.023,-0.6908,-0.6967
1772930397057.1724,0.0229,-0.691,-0.6978
1772930397057.1724,0.0207,-0.6909,-0.6991
1772930397057.1724,0.0226,-0.6906,-0.6978
1772930397057.1724,0.0213,-0.6898,-0.7003
1772930397057.1724,0.0217,-0.6896,-0.6997
1772930397057.1724,0.0201,-0.6904,-0.7008
1772930397057.1724,0.0213,-0.6919,-0.702
1772930397073.1355,0.0217,-0.6903,-0.7003
1772930397073.1355,0.0198,-0.6925,-0.7
1772930397073.1355,0.0196,-0.6904,-0.7019
1772930397073.1355,0.0182,-0.6895,-0.6998
1772930397073.1355,0.0193,-0.6864,-0.6995
1772930397088.708,0.0181,-0.6846,-0.7
1772930397088.708,0.014,-0.6847,-0.701
1772930397088.708,0.0139,-0.685,-0.7007
1772930397088.708,0.0149,-0.6847,-0.7
1772930397088.708,0.0135,-0.6861,-0.7021
1772930397088.708,0.0123,-0.6856,-0.7025
1772930397088.708,0.012,-0.6854,-0.7042
1772930397088.708,0.0125,-0.687,-0.7027
1772930397104.7488,0.0126,-0.6879,-0.7063
1772930397104.7488,0.0105,-0.6865,-0.7052
1772930397104.7488,0.0101,-0.6883,-0.706
1772930397104.7488,0.0107,-0.6892,-0.7037
1772930397104.7488,0.0094,-0.6895,-0.704
1772930397104.7488,0.0093,-0.6904,-0.7055
1772930397104.7488,0.0095,-0.6922,-0.7072
1772930397104.7488,0.0092,-0.6927,-0.7048
1772930397119.9604,0.0098,-0.6938,-0.7029
1772930397119.9604,0.0074,-0.6949,-0.7054
1772930397119.9604,0.0099,-0.6936,-0.7036
1772930397119.9604,0.0092,-0.696,-0.7023
1772930397119.9604,0.0115,-0.6922,-0.7017
1772930397119.9604,0.0095,-0.6937,-0.7015
1772930397119.9604,0.0095,-0.6939,-0.7008
1772930397119.9604,0.0101,-0.6913,-0.7028
1772930397135.0315,0.0106,-0.6907,-0.7001
1772930397135.0315,0.0115,-0.6908,-0.7003
1772930397135.0315,0.0099,-0.6897,-0.7003
1772930397135.0315,0.0107,-0.6893,-0.6983
1772930397135.0315,0.0117,-0.6889,-0.6979
1772930397135.0315,0.0101,-0.6898,-0.6956
1772930397135.0315,0.0096,-0.6894,-0.694
1772930397135.0315,0.012,-0.6881,-0.6953
1772930397151.0085,0.0131,-0.6921,-0.6933
1772930397151.0085,0.0121,-0.6925,-0.6941
1772930397151.0085,0.0125,-0.6899,-0.6903
1772930397151.0085,0.011,-0.6906,-0.6925
1772930397151.0085,0.0105,-0.6911,-0.6939
1772930397166.5798,0.0104,-0.6881,-0.6912
1772930397166.5798,0.01,-0.6891,-0.6921
1772930397166.5798,0.0093,-0.6914,-0.6914
1772930397166.5798,0.0097,-0.692,-0.6913
1772930397166.5798,0.0093,-0.6952,-0.6902
1772930397166.5798,0.0081,-0.6953,-0.6913
1772930397166.5798,0.0061,-0.6947,-0.6895
1772930397166.5798,0.0074,-0.6974,-0.6896
1772930397181.469,0.0076,-0.6972,-0.6874
1772930397181.469,0.0045,-0.7002,-0.6886
1772930397181.469,0.0054,-0.6972,-0.6891
1772930397181.469,0.0054,-0.6983,-0.6883
1772930397181.469,0.0048,-0.695,-0.6873
1772930397181.469,0.0034,-0.698,-0.688
1772930397181.469,0.0046,-0.6969,-0.6861
1772930397181.469,0.0047,-0.6956,-0.6888
1772930397197.0857,0.0073,-0.6942,-0.6875
1772930397197.0857,0.0079,-0.6945,-0.6878
1772930397197.0857,0.0075,-0.6928,-0.6877
1772930397197.0857,0.0092,-0.6905,-0.6894
1772930397197.0857,0.0084,-0.6923,-0.6894
1772930397197.0857,0.0103,-0.6944,-0.689
1772930397197.0857,0.0113,-0.6933,-0.6896
1772930397197.0857,0.0165,-0.6939,-0.6881
1772930397212.1697,0.0154,-0.6938,-0.6907
1772930397212.1697,0.0182,-0.6947,-0.6878
1772930397212.1697,0.02,-0.6932,-0.6881
1772930397212.1697,0.021,-0.693,-0.689
1772930397212.1697,0.0229,-0.6925,-0.687
1772930397212.1697,0.0237,-0.6958,-0.6837
1772930397227.9646,0.0243,-0.6931,-0.6876
1772930397227.9646,0.0252,-0.6931,-0.6886
1772930397227.9646,0.0246,-0.6942,-0.6887
1772930397227.9646,0.0218,-0.6925,-0.6874
1772930397227.9646,0.0207,-0.6935,-0.6854
1772930397227.9646,0.0195,-0.6932,-0.6882
1772930397227.9646,0.022,-0.692,-0.6913
1772930397227.9646,0.0186,-0.6921,-0.6903
1772930397243.067,0.0212,-0.6904,-0.6877
1772930397243.067,0.0209,-0.6895,-0.6892
1772930397243.067,0.019,-0.6888,-0.69
1772930397243.067,0.0174,-0.6911,-0.6877
1772930397243.067,0.0201,-0.6895,-0.6893
1772930397243.067,0.0213,-0.69,-0.6906
1772930397243.067,0.0203,-0.69,-0.6908
1772930397243.067,0.0185,-0.6913,-0.6915
1772930397258.6204,0.0172,-0.688,-0.6916
1772930397258.6204,0.0148,-0.6895,-0.6922
1772930397258.6204,0.0154,-0.6902,-0.6931
1772930397258.6204,0.0127,-0.6892,-0.6936
1772930397258.6204,0.0113,-0.6883,-0.6932
1772930397258.6204,0.0069,-0.6883,-0.6929
1772930397258.6204,0.0057,-0.6884,-0.6967
1772930397258.6204,0.0029,-0.6869,-0.6962
1772930397273.8777,0.0037,-0.6866,-0.6958
1772930397273.8777,0.0023,-0.6886,-0.6925
1772930397273.8777,0.0,-0.6894,-0.6917
1772930397273.8777,-0.0013,-0.6869,-0.6937
1772930397273.8777,-0.0006,-0.6895,-0.6886
1772930397273.8777,0.0,-0.6915,-0.6895
1772930397273.8777,-0.0013,-0.6892,-0.6913
1772930397273.8777,-0.0026,-0.6914,-0.6905
1772930397289.4243,-0.0015,-0.6905,-0.6878
1772930397289.4243,-0.0008,-0.6926,-0.6915
1772930397289.4243,-0.0051,-0.6916,-0.6912
1772930397289.4243,-0.0054,-0.6906,-0.6913
1772930397289.4243,-0.0049,-0.691,-0.6943
1772930397304.368,-0.005,-0.6925,-0.6907
1772930397304.368,-0.0062,-0.6924,-0.6921
1772930397304.368,-0.0038,-0.6924,-0.6951
1772930397304.368,-0.003,-0.6924,-0.6938
1772930397304.368,-0.0024,-0.6923,-0.6925
1772930397304.368,-0.0015,-0.6945,-0.6932
1772930397304.368,-0.0004,-0.6923,-0.6943
1772930397320.2158,-0.0029,-0.6924,-0.6934
1772930397320.2158,0.0008,-0.693,-0.695
1772930397320.2158,-0.0003,-0.6913,-0.6944
1772930397320.2158,0.0045,-0.6904,-0.696
1772930397320.2158,0.0018,-0.6895,-0.6963
1772930397320.2158,0.0054,-0.6906,-0.6995
1772930397320.2158,0.0099,-0.6908,-0.696
1772930397320.2158,0.012,-0.6896,-0.6958
1772930397335.8826,0.0138,-0.6909,-0.6943
1772930397335.8826,0.0126,-0.6894,-0.6961
1772930397335.8826,0.0181,-0.6896,-0.6965
1772930397335.8826,0.0166,-0.6861,-0.6959
1772930397335.8826,0.0212,-0.6844,-0.6958
1772930397335.8826,0.0194,-0.6855,-0.6927
1772930397335.8826,0.0242,-0.6854,-0.6936
1772930397335.8826,0.0242,-0.6837,-0.6918
1772930397350.946,0.0274,-0.6814,-0.6958
1772930397350.946,0.0294,-0.6826,-0.6938
1772930397350.946,0.0298,-0.68,-0.6945
1772930397350.946,0.0292,-0.682,-0.6951
1772930397350.946,0.0275,-0.678,-0.6989
1772930397350.946,0.0259,-0.6792,-0.7006
1772930397366.3667,0.0284,-0.6802,-0.6985
1772930397366.3667,0.0276,-0.6802,-0.7019
1772930397366.3667,0.0254,-0.6808,-0.698
1772930397366.3667,0.0237,-0.6829,-0.7016
1772930397366.3667,0.0245,-0.6855,-0.6998
1772930397366.3667,0.024,-0.6866,-0.7036
1772930397366.3667,0.0235,-0.6837,-0.7026
1772930397366.3667,0.0203,-0.6849,-0.6995
1772930397382.4656,0.0186,-0.689,-0.7042
1772930397382.4656,0.0196,-0.6856,-0.703
1772930397382.4656,0.0218,-0.685,-0.7042
1772930397382.4656,0.0155,-0.6872,-0.7037
1772930397382.4656,0.0161,-0.6853,-0.7052
1772930397382.4656,0.0174,-0.6841,-0.7019
1772930397382.4656,0.0159,-0.6876,-0.7036
1772930397382.4656,0.0139,-0.6859,-0.7026
1772930397398.0596,0.013,-0.6876,-0.7031
1772930397398.0596,0.0132,-0.6889,-0.6998
1772930397398.0596,0.014,-0.6904,-0.7003
1772930397398.0596,0.0107,-0.69,-0.6985
1772930397398.0596,0.011,-0.6916,-0.6972
1772930397398.0596,0.0137,-0.6895,-0.6982
1772930397398.0596,0.0151,-0.691,-0.6977
1772930397398.0596,0.0139,-0.6873,-0.6986
1772930397413.2268,0.0125,-0.6886,-0.7
1772930397413.2268,0.013,-0.6881,-0.6988
1772930397413.2268,0.0148,-0.6881,-0.6977
1772930397413.2268,0.0138,-0.6905,-0.6978
1772930397413.2268,0.0154,-0.6898,-0.6977
1772930397413.2268,0.0163,-0.6918,-0.6983
1772930397413.2268,0.0138,-0.6908,-0.701
1772930397413.2268,0.0151,-0.6923,-0.697
1772930397429.2932,0.0157,-0.692,-0.7005
1772930397429.2932,0.0138,-0.6917,-0.6995
1772930397429.2932,0.0137,-0.692,-0.7006
1772930397429.2932,0.0128,-0.6936,-0.6985
1772930397429.2932,0.0132,-0.6955,-0.6989
1772930397444.9702,0.0143,-0.6965,-0.6969
1772930397444.9702,0.0158,-0.6984,-0.6933
1772930397444.9702,0.0159,-0.6962,-0.6925
1772930397444.9702,0.0189,-0.697,-0.6921
1772930397444.9702,0.0204,-0.6971,-0.6915
1772930397444.9702,0.0183,-0.6975,-0.6879
1772930397444.9702,0.0195,-0.6954,-0.6919
1772930397444.9702,0.0208,-0.6955,-0.6891
1772930397460.2527,0.0206,-0.6955,-0.691
1772930397460.2527,0.0189,-0.694,-0.6903
1772930397460.2527,0.0171,-0.6939,-0.6891
1772930397460.2527,0.0177,-0.6936,-0.6913
1772930397460.2527,0.0178,-0.6941,-0.6925
1772930397460.2527,0.0167,-0.6947,-0.6928
1772930397460.2527,0.0176,-0.6925,-0.693
1772930397460.2527,0.0139,-0.6897,-0.6898
1772930397475.8135,0.0126,-0.6892,-0.6925
1772930397475.8135,0.0113,-0.6892,-0.6937
1772930397475.8135,0.012,-0.6873,-0.6917
1772930397475.8135,0.0084,-0.6872,-0.6945
1772930397475.8135,0.0092,-0.6858,-0.6925
1772930397475.8135,0.0076,-0.6829,-0.6931
1772930397475.8135,0.0101,-0.6836,-0.6934
1772930397475.8135,0.0081,-0.6845,-0.6924
1772930397491.3164,0.0082,-0.6833,-0.6931
1772930397491.3164,0.0076,-0.6824,-0.6941
1772930397491.3164,0.0065,-0.6819,-0.6928
1772930397491.3164,0.0087,-0.6839,-0.6931
1772930397491.3164,0.0076,-0.6798,-0.6964
1772930397491.3164,0.0049,-0.6814,-0.6974
1772930397491.3164,0.0052,-0.6842,-0.6964
1772930397491.3164,0.006,-0.6809,-0.6988
1772930397506.7598,0.0096,-0.6823,-0.6944
1772930397506.7598,0.0068,-0.6827,-0.6955
1772930397506.7598,0.0109,-0.6819,-0.696
1772930397506.7598,0.0143,-0.6832,-0.6974
1772930397506.7598,0.014,-0.6845,-0.6944
1772930397523.247,0.016,-0.684,-0.6929
1772930397523.247,0.0184,-0.6882,-0.6936
1772930397523.247,0.0198,-0.6862,-0.6928
1772930397523.247,0.023,-0.6925,-0.688
1772930397523.247,0.0158,-0.6971,-0.6839
1772930397523.247,0.0189,-0.6979,-0.6816
1772930397523.247,0.0285,-0.7058,-0.6822
1772930397523.247,0.0298,-0.7119,-0.6719
1772930397539.5354,0.0335,-0.7128,-0.6701
1772930397539.5354,0.0298,-0.7128,-0.6701
1772930397539.5354,0.0274,-0.7052,-0.6719
1772930397539.5354,0.0231,-0.6985,-0.6739
1772930397539.5354,0.0182,-0.6975,-0.6767
1772930397539.5354,0.0132,-0.695,-0.6783
1772930397539.5354,0.0102,-0.693,-0.682
1772930397539.5354,0.009,-0.6917,-0.6831
1772930397554.5088,0.0082,-0.6867,-0.6918
1772930397554.5088,0.0027,-0.6866,-0.6971
1772930397554.5088,0.0001,-0.6839,-0.7016
1772930397554.5088,-0.0002,-0.6825,-0.7081
1772930397554.5088,-0.0028,-0.6823,-0.7099
1772930397554.5088,-0.0037,-0.6837,-0.7147
1772930397554.5088,0.0007,-0.6848,-0.7169
1772930397554.5088,0.0067,-0.6879,-0.718
1772930397569.9722,0.0121,-0.6901,-0.7173
1772930397569.9722,0.0138,-0.6886,-0.7139
1772930397569.9722,0.0191,-0.688,-0.7141
1772930397569.9722,0.0245,-0.6892,-0.7099
1772930397569.9722,0.0267,-0.6858,-0.7067
1772930397569.9722,0.0281,-0.6837,-0.7048
1772930397569.9722,0.0303,-0.6836,-0.7085
1772930397569.9722,0.0289,-0.6827,-0.7014
1772930397585.7104,0.0288,-0.6842,-0.701
1772930397585.7104,0.0303,-0.6933,-0.6954
1772930397585.7104,0.0322,-0.6977,-0.6874
1772930397585.7104,0.0337,-0.7043,-0.6885
1772930397585.7104,0.0354,-0.7076,-0.6835
1772930397585.7104,0.0362,-0.7079,-0.6833
1772930397585.7104,0.0369,-0.7113,-0.6814
1772930397585.7104,0.0336,-0.7074,-0.6777
1772930397601.2642,0.0287,-0.7065,-0.6748
1772930397601.2642,0.0288,-0.7068,-0.6748
1772930397601.2642,0.0244,-0.7089,-0.6777
1772930397601.2642,0.0218,-0.7078,-0.6818
1772930397601.2642,0.0195,-0.7072,-0.6828
1772930397617.0776,0.0156,-0.7063,-0.6844
1772930397617.0776,0.0111,-0.7044,-0.6892
1772930397617.0776,0.0096,-0.7007,-0.6894
1772930397617.0776,0.0076,-0.6996,-0.6924
1772930397617.0776,0.0071,-0.7005,-0.6952
1772930397617.0776,0.0048,-0.6975,-0.699
1772930397617.0776,0.0054,-0.7,-0.7016
1772930397617.0776,0.0037,-0.6964,-0.7052
1772930397632.1733,0.0068,-0.7002,-0.7096
1772930397632.1733,0.0062,-0.6973,-0.7116
1772930397632.1733,0.0055,-0.6941,-0.715
1772930397632.1733,0.0054,-0.6939,-0.7158
1772930397632.1733,0.0056,-0.693,-0.7167
1772930397632.1733,0.0081,-0.6926,-0.7165
1772930397632.1733,0.0074,-0.6917,-0.7226
1772930397632.1733,0.0115,-0.6883,-0.72
1772930397647.8325,0.0126,-0.6899,-0.7191
1772930397647.8325,0.0163,-0.6877,-0.7135
1772930397647.8325,0.0163,-0.6848,-0.7136
1772930397647.8325,0.0203,-0.6869,-0.7108
1772930397647.8325,0.0242,-0.685,-0.7038
1772930397647.8325,0.0249,-0.6831,-0.6996
1772930397647.8325,0.0253,-0.682,-0.699
1772930397647.8325,0.0244,-0.6841,-0.6961
1772930397662.9739,0.0245,-0.6848,-0.6931
1772930397662.9739,0.0244,-0.6842,-0.6933
1772930397662.9739,0.0222,-0.6888,-0.6941
1772930397662.9739,0.0216,-0.6873,-0.6939
1772930397662.9739,0.0205,-0.687,-0.6959
1772930397662.9739,0.0187,-0.6877,-0.6959
1772930397662.9739,0.0163,-0.6875,-0.6973
1772930397662.9739,0.0156,-0.687,-0.6947
1772930397678.55,0.012,-0.6873,-0.6974
1772930397678.55,0.0121,-0.6867,-0.6922
1772930397678.55,0.0129,-0.6877,-0.6924
1772930397678.55,0.0117,-0.6884,-0.6899
1772930397678.55,0.0088,-0.6889,-0.6885
1772930397678.55,0.0088,-0.6888,-0.6872
1772930397694.0842,0.0092,-0.6884,-0.6854
1772930397694.0842,0.0157,-0.6888,-0.6855
1772930397694.0842,0.0168,-0.6883,-0.6821
1772930397694.0842,0.0163,-0.6872,-0.6841
1772930397694.0842,0.0168,-0.6889,-0.6831
1772930397694.0842,0.0172,-0.6877,-0.6821
1772930397694.0842,0.0181,-0.688,-0.683
1772930397694.0842,0.0153,-0.6875,-0.685
1772930397709.2095,0.017,-0.6881,-0.6849
1772930397709.2095,0.0132,-0.6874,-0.6873
1772930397709.2095,0.0153,-0.6839,-0.6865
1772930397709.2095,0.0178,-0.6837,-0.6913
1772930397709.2095,0.0162,-0.6818,-0.6892
1772930397709.2095,0.0138,-0.6836,-0.688
1772930397709.2095,0.0165,-0.6815,-0.6945
1772930397709.2095,0.0181,-0.68,-0.6941
1772930397725.0723,0.0166,-0.6782,-0.6955
1772930397725.0723,0.0157,-0.6795,-0.6976
1772930397725.0723,0.0168,-0.6783,-0.6973
1772930397725.0723,0.0157,-0.677,-0.6983
1772930397725.0723,0.0123,-0.6758,-0.6998
1772930397725.0723,0.0144,-0.6769,-0.7019
1772930397725.0723,0.0124,-0.676,-0.6989
1772930397725.0723,0.0138,-0.6761,-0.7019
1772930397741.216,0.0093,-0.6772,-0.6992
1772930397741.216,0.0101,-0.6764,-0.7017
1772930397741.216,0.0118,-0.6776,-0.7003
1772930397741.216,0.0105,-0.6791,-0.7019
1772930397741.216,0.008,-0.6793,-0.6977
1772930397741.216,0.0101,-0.682,-0.6997
1772930397741.216,0.0082,-0.6838,-0.6997
1772930397741.216,0.0115,-0.6854,-0.6986
1772930397755.9475,0.0099,-0.6852,-0.6993
1772930397755.9475,0.0126,-0.6859,-0.6981
1772930397755.9475,0.0116,-0.6877,-0.6974
1772930397755.9475,0.0121,-0.6902,-0.6975
1772930397755.9475,0.0132,-0.6903,-0.6978
1772930397771.3596,0.0135,-0.6925,-0.6949
1772930397771.3596,0.0157,-0.6916,-0.6983
1772930397771.3596,0.0179,-0.6917,-0.6977
1772930397771.3596,0.0241,-0.6917,-0.6954
1772930397771.3596,0.0234,-0.6882,-0.6955
1772930397771.3596,0.0259,-0.6875,-0.6949
1772930397771.3596,0.026,-0.6881,-0.6975
1772930397771.3596,0.0295,-0.6873,-0.6967
1772930397786.9832,0.0303,-0.6901,-0.6979
1772930397786.9832,0.0304,-0.6889,-0.6974
1772930397786.9832,0.0307,-0.69,-0.6995
1772930397786.9832,0.0308,-0.6873,-0.6991
1772930397786.9832,0.0301,-0.6889,-0.7039
1772930397786.9832,0.0283,-0.6861,-0.7036
1772930397786.9832,0.0281,-0.6882,-0.7052
1772930397786.9832,0.0284,-0.6875,-0.7051
1772930397801.915,0.0268,-0.6903,-0.7093
1772930397801.915,0.0285,-0.6906,-0.7069
1772930397801.915,0.0262,-0.6909,-0.7053
1772930397801.915,0.0281,-0.6882,-0.7124
1772930397801.915,0.0259,-0.6852,-0.7126
1772930397801.915,0.0241,-0.6845,-0.7135
1772930397801.915,0.0219,-0.6825,-0.7158
1772930397801.915,0.0201,-0.6825,-0.7131
1772930397817.106,0.0194,-0.686,-0.7127
1772930397817.106,0.0189,-0.6866,-0.7094
1772930397817.106,0.0212,-0.6888,-0.71
1772930397817.106,0.0186,-0.6898,-0.7078
1772930397817.106,0.0181,-0.6906,-0.7082
1772930397832.6736,0.0187,-0.6885,-0.7023
1772930397832.6736,0.0156,-0.6933,-0.7007
1772930397832.6736,0.0151,-0.6937,-0.6995
1772930397832.6736,0.0156,-0.6942,-0.6961
1772930397832.6736,0.0172,-0.6974,-0.6975
1772930397832.6736,0.0157,-0.6966,-0.6991
1772930397832.6736,0.0145,-0.6966,-0.7003
1772930397832.6736,0.0131,-0.6992,-0.6965
1772930397847.7153,0.0115,-0.6969,-0.698
1772930397847.7153,0.0137,-0.6983,-0.6965
1772930397847.7153,0.0132,-0.6958,-0.6994
1772930397847.7153,0.0109,-0.697,-0.6949
1772930397847.7153,0.0101,-0.6976,-0.6975
1772930397847.7153,0.0074,-0.7,-0.6963
1772930397847.7153,0.0082,-0.6984,-0.6981
1772930397847.7153,0.0086,-0.6978,-0.6983
1772930397862.7793,0.005,-0.7001,-0.7002
1772930397862.7793,0.0062,-0.6986,-0.703
1772930397862.7793,0.0063,-0.6969,-0.703
1772930397862.7793,0.0059,-0.6954,-0.7008
1772930397862.7793,0.0053,-0.6969,-0.7011
1772930397862.7793,0.0066,-0.6954,-0.702
1772930397862.7793,0.0059,-0.6949,-0.7035
1772930397862.7793,0.0083,-0.6935,-0.7005
1772930397878.074,0.009,-0.6925,-0.7008
1772930397878.074,0.0098,-0.6926,-0.6977
1772930397878.074,0.0105,-0.6924,-0.7003
1772930397878.074,0.0142,-0.6913,-0.6989
1772930397878.074,0.0129,-0.6892,-0.6969
1772930397878.074,0.0145,-0.6873,-0.6962
1772930397893.3914,0.0167,-0.6876,-0.6955
1772930397893.3914,0.0153,-0.6855,-0.6956
1772930397893.3914,0.0157,-0.6865,-0.6954
1772930397893.3914,0.0176,-0.6861,-0.6954
1772930397893.3914,0.0171,-0.6881,-0.6963
1772930397893.3914,0.0146,-0.6856,-0.6976
1772930397893.3914,0.0176,-0.6874,-0.6985
1772930397893.3914,0.0147,-0.686,-0.6981
1772930397909.0679,0.0171,-0.6861,-0.6984
1772930397909.0679,0.0168,-0.6878,-0.7005
1772930397909.0679,0.0171,-0.6877,-0.6987
1772930397909.0679,0.0176,-0.6894,-0.6995
1772930397909.0679,0.0162,-0.6884,-0.6981
1772930397909.0679,0.0174,-0.6881,-0.6994
1772930397909.0679,0.0173,-0.6891,-0.6953
1772930397909.0679,0.0184,-0.6898,-0.6982
1772930397924.3755,0.0184,-0.6909,-0.6972
1772930397924.3755,0.0148,-0.6903,-0.6984
1772930397924.3755,0.0155,-0.691,-0.6935
1772930397924.3755,0.0162,-0.6925,-0.6966
1772930397924.3755,0.0141,-0.6906,-0.6923
1772930397924.3755,0.0162,-0.6906,-0.6947
1772930397924.3755,0.0126,-0.6893,-0.6945
1772930397924.3755,0.013,-0.69,-0.6952
1772930397939.5647,0.0119,-0.688,-0.6961
1772930397939.5647,0.0109,-0.6875,-0.6953
1772930397939.5647,0.013,-0.6869,-0.6949
1772930397939.5647,0.0092,-0.6844,-0.6923
1772930397939.5647,0.0098,-0.6851,-0.6936
1772930397955.1558,0.0088,-0.6844,-0.6966
1772930397955.1558,0.0078,-0.6827,-0.6951
1772930397955.1558,0.0072,-0.6822,-0.6952
1772930397955.1558,0.0075,-0.6846,-0.6966
1772930397955.1558,0.0081,-0.6822,-0.6983
1772930397955.1558,0.0071,-0.6836,-0.695
1772930397955.1558,0.0035,-0.6831,-0.6994
1772930397955.1558,0.0057,-0.6823,-0.7001
1772930397971.2732,0.0015,-0.6863,-0.6981
1772930397971.2732,0.0029,-0.6842,-0.6966
1772930397971.2732,-0.0004,-0.6844,-0.6982
1772930397971.2732,-0.0009,-0.6833,-0.7035
1772930397971.2732,-0.0017,-0.6829,-0.7027
1772930397971.2732,-0.0019,-0.6845,-0.7013
1772930397971.2732,-0.0013,-0.6839,-0.7019
1772930397971.2732,-0.0023,-0.6826,-0.7019
1772930397986.7192,0.0008,-0.682,-0.7019
1772930397986.7192,0.0015,-0.6839,-0.7042
1772930397986.7192,0.0032,-0.6821,-0.7012
1772930397986.7192,0.0056,-0.6825,-0.7018
1772930397986.7192,0.0051,-0.6846,-0.7019
1772930397986.7192,0.0038,-0.6844,-0.7036
1772930397986.7192,0.0079,-0.6832,-0.7033
1772930397986.7192,0.0052,-0.6816,-0.7088
1772930398002.0312,0.0049,-0.6819,-0.7081
1772930398002.0312,0.0045,-0.683,-0.7078
1772930398002.0312,0.0021,-0.6831,-0.7097
1772930398002.0312,-0.0002,-0.6825,-0.7085
1772930398002.0312,-0.0029,-0.684,-0.7092
1772930398002.0312,0.0002,-0.6838,-0.7089
1772930398002.0312,0.0006,-0.6899,-0.705
1772930398002.0312,0.0014,-0.6913,-0.7028
1772930398017.187,0.0023,-0.6922,-0.703
1772930398017.187,0.0045,-0.696,-0.7008
1772930398017.187,0.0057,-0.6989,-0.7008
1772930398017.187,0.0057,-0.6978,-0.696
1772930398017.187,0.0063,-0.6966,-0.6955
1772930398031.8796,0.0029,-0.6982,-0.6959
1772930398031.8796,0.0063,-0.7,-0.6939
1772930398031.8796,0.0057,-0.699,-0.6968
1772930398031.8796,0.0074,-0.6964,-0.6955
1772930398031.8796,0.0084,-0.6973,-0.6934
1772930398031.8796,0.0114,-0.6996,-0.6956
1772930398031.8796,0.0115,-0.7011,-0.6911
1772930398031.8796,0.011,-0.7005,-0.6912
1772930398048.0737,0.0115,-0.7019,-0.6912
1772930398048.0737,0.015,-0.7008,-0.6908
1772930398048.0737,0.0169,-0.7019,-0.6888
1772930398048.0737,0.0163,-0.7017,-0.6929
1772930398048.0737,0.0167,-0.7008,-0.6924
1772930398048.0737,0.0201,-0.7007,-0.6888
1772930398048.0737,0.0228,-0.7004,-0.6905
1772930398048.0737,0.0249,-0.6999,-0.6911
1772930398063.837,0.0237,-0.6997,-0.6893
1772930398063.837,0.0246,-0.6992,-0.6894
1772930398063.837,0.0299,-0.6975,-0.693
1772930398063.837,0.0324,-0.6964,-0.6877
1772930398063.837,0.0304,-0.6971,-0.6895
1772930398063.837,0.0332,-0.6947,-0.687
1772930398063.837,0.0307,-0.6933,-0.6903
1772930398063.837,0.0314,-0.6922,-0.6889
1772930398079.385,0.0329,-0.6892,-0.6872
1772930398079.385,0.032,-0.6893,-0.6856
1772930398079.385,0.0317,-0.6895,-0.6877
1772930398079.385,0.0338,-0.6901,-0.6855
1772930398079.385,0.0314,-0.6883,-0.687
1772930398079.385,0.0309,-0.6901,-0.6869
1772930398079.385,0.0308,-0.6892,-0.6849
1772930398079.385,0.0314,-0.6893,-0.6844
1772930398095.1763,0.0304,-0.6727,-0.6845
1772930398095.1763,0.0298,-0.6883,-0.6837
1772930398095.1763,0.0257,-0.6854,-0.6828
1772930398095.1763,0.0256,-0.6851,-0.681
1772930398095.1763,0.0268,-0.6853,-0.6802
1772930398111.2805,0.0248,-0.6837,-0.6795
1772930398111.2805,0.0202,-0.6793,-0.6832
1772930398111.2805,0.021,-0.6787,-0.679
1772930398111.2805,0.0195,-0.6786,-0.6788
1772930398111.2805,0.0192,-0.6786,-0.6786
1772930398111.2805,0.0157,-0.6794,-0.6812
1772930398111.2805,0.0168,-0.6791,-0.6817
1772930398111.2805,0.0165,-0.6814,-0.6804
1772930398127.8782,0.0158,-0.6852,-0.6783
1772930398127.8782,0.014,-0.6828,-0.6784
1772930398127.8782,0.0145,-0.685,-0.682
1772930398127.8782,0.0181,-0.6865,-0.6796
1772930398127.8782,0.0149,-0.6858,-0.6815
1772930398127.8782,0.0153,-0.6865,-0.6804
1772930398127.8782,0.0154,-0.6887,-0.6821
1772930398127.8782,0.014,-0.6884,-0.6814
1772930398143.0125,0.0143,-0.6861,-0.6818
1772930398143.0125,0.0141,-0.6897,-0.6823
1772930398143.0125,0.0128,-0.6884,-0.6832
1772930398143.0125,0.0151,-0.6849,-0.6836
1772930398143.0125,0.0159,-0.6878,-0.6837
1772930398143.0125,0.0137,-0.6874,-0.6857
1772930398143.0125,0.0178,-0.6866,-0.6873
1772930398143.0125,0.0152,-0.6853,-0.6878
1772930398158.7395,0.0192,-0.6833,-0.6852
1772930398158.7395,0.016,-0.6826,-0.688
1772930398158.7395,0.0172,-0.682,-0.6922
1772930398158.7395,0.016,-0.6832,-0.6927
1772930398158.7395,0.0164,-0.6833,-0.6944
1772930398158.7395,0.0144,-0.6853,-0.695
1772930398158.7395,0.0139,-0.6892,-0.6989
1772930398158.7395,0.0151,-0.685,-0.6967
1772930398174.7378,0.0131,-0.6859,-0.6979
1772930398174.7378,0.0135,-0.6876,-0.6979
1772930398174.7378,0.0145,-0.6884,-0.6993
1772930398174.7378,0.0159,-0.6882,-0.7019
1772930398174.7378,0.0138,-0.6908,-0.7017
1772930398174.7378,0.014,-0.6906,-0.7
1772930398174.7378,0.0198,-0.693,-0.7003
1772930398174.7378,0.0182,-0.6924,-0.7041
1772930398189.881,0.0157,-0.6919,-0.6997
1772930398189.881,0.0168,-0.6919,-0.7075
1772930398189.881,0.0174,-0.6908,-0.708
1772930398189.881,0.0153,-0.6922,-0.7082
1772930398189.881,0.0152,-0.6911,-0.7078
1772930398189.881,0.0173,-0.6898,-0.7104
1772930398205.117,0.015,-0.6899,-0.711
1772930398205.117,0.0135,-0.6919,-0.7114
1772930398205.117,0.0129,-0.6932,-0.713
1772930398205.117,0.014,-0.6939,-0.7148
1772930398205.117,0.0127,-0.6953,-0.7147
1772930398205.117,0.0119,-0.6962,-0.7159
1772930398205.117,0.0127,-0.6968,-0.7179
1772930398205.117,0.0105,-0.6958,-0.7209
1772930398222.028,0.0095,-0.6953,-0.7177
1772930398222.028,0.0065,-0.6943,-0.7197
1772930398222.028,0.0079,-0.6945,-0.7218
1772930398222.028,0.0063,-0.6932,-0.7202
1772930398222.028,0.0071,-0.6896,-0.7207
1772930398222.028,0.0068,-0.6886,-0.7212
1772930398222.028,0.0063,-0.6928,-0.7213
1772930398222.028,0.0057,-0.6908,-0.7168
1772930398237.768,0.0074,-0.6925,-0.7174
1772930398237.768,0.0086,-0.6916,-0.7146
1772930398237.768,0.0093,-0.6923,-0.7151
1772930398237.768,0.0108,-0.6938,-0.709
1772930398237.768,0.0114,-0.6927,-0.7099
1772930398237.768,0.0093,-0.6931,-0.7052
1772930398237.768,0.0134,-0.6905,-0.706
1772930398237.768,0.0113,-0.6942,-0.7056
1772930398253.4536,0.0118,-0.6918,-0.7028
1772930398253.4536,0.0118,-0.6932,-0.7019
1772930398253.4536,0.012,-0.6947,-0.7035
1772930398253.4536,0.0127,-0.6919,-0.701
1772930398253.4536,0.0109,-0.6934,-0.7021
1772930398253.4536,0.0095,-0.6952,-0.6995
1772930398253.4536,0.0113,-0.695,-0.7015
1772930398253.4536,0.0111,-0.6934,-0.6989
1772930398268.9253,0.0123,-0.6931,-0.6967
1772930398268.9253,0.0113,-0.6959,-0.6965
1772930398268.9253,0.0096,-0.6926,-0.6972
1772930398268.9253,0.0104,-0.6894,-0.6927
1772930398268.9253,0.0115,-0.6895,-0.6959
1772930398268.9253,0.0078,-0.6913,-0.6939
1772930398268.9253,0.0132,-0.6909,-0.6931
1772930398268.9253,0.0117,-0.6881,-0.6929
1772930398284.0525,0.0113,-0.6887,-0.6902
1772930398284.0525,0.0099,-0.6866,-0.6895
1772930398284.0525,0.0126,-0.6867,-0.6919
1772930398284.0525,0.0121,-0.6864,-0.6908
1772930398284.0525,0.0106,-0.6843,-0.6919
1772930398299.7278,0.011,-0.6809,-0.6903
1772930398299.7278,0.0103,-0.679,-0.6903
1772930398299.7278,0.0141,-0.6777,-0.6889
1772930398299.7278,0.0132,-0.6752,-0.6902
1772930398299.7278,0.0145,-0.6738,-0.6915
1772930398299.7278,0.0168,-0.6718,-0.6895
1772930398299.7278,0.0166,-0.6743,-0.6896
1772930398299.7278,0.0173,-0.673,-0.6878
1772930398315.0742,0.0167,-0.6738,-0.6871
1772930398315.0742,0.0178,-0.6708,-0.6876
1772930398315.0742,0.0199,-0.6701,-0.673
1772930398315.0742,0.0188,-0.6715,-0.6863
1772930398315.0742,0.0193,-0.6694,-0.6905
1772930398315.0742,0.0175,-0.6667,-0.691
1772930398315.0742,0.0204,-0.6692,-0.6894
1772930398315.0742,0.0175,-0.6719,-0.6884
1772930398331.1895,0.0151,-0.6705,-0.6914
1772930398331.1895,0.0168,-0.6725,-0.6923
1772930398331.1895,0.0126,-0.6734,-0.6889
1772930398331.1895,0.0146,-0.6721,-0.6951
1772930398331.1895,0.0116,-0.6741,-0.6929
1772930398331.1895,0.0111,-0.6762,-0.6964
1772930398331.1895,0.011,-0.6773,-0.6937
1772930398331.1895,0.011,-0.6793,-0.698
1772930398347.098,0.0086,-0.6787,-0.6959
1772930398347.098,0.0102,-0.6822,-0.6941
1772930398347.098,0.0081,-0.6848,-0.6972
1772930398347.098,0.009,-0.6853,-0.6964
1772930398347.098,0.0083,-0.6893,-0.697
1772930398347.098,0.0089,-0.6901,-0.6984
1772930398347.098,0.0048,-0.6904,-0.6948
1772930398347.098,0.0079,-0.6923,-0.697
1772930398363.2124,0.0093,-0.6912,-0.6972
1772930398363.2124,0.0101,-0.6922,-0.6994
1772930398363.2124,0.0093,-0.6897,-0.6995
1772930398363.2124,0.0114,-0.6936,-0.6982
1772930398363.2124,0.0121,-0.6919,-0.6994
1772930398363.2124,0.0106,-0.692,-0.7
1772930398363.2124,0.009,-0.6941,-0.6986
1772930398363.2124,0.0089,-0.6926,-0.698
1772930398378.5076,0.0071,-0.6955,-0.7016
1772930398378.5076,0.0092,-0.6989,-0.6995
1772930398378.5076,0.0096,-0.6991,-0.6979
1772930398378.5076,0.0088,-0.7003,-0.6967
1772930398378.5076,0.008,-0.7005,-0.696
1772930398394.1704,0.0082,-0.6993,-0.6956
1772930398394.1704,0.0088,-0.6984,-0.6949
1772930398394.1704,0.0109,-0.6978,-0.6925
1772930398394.1704,0.0119,-0.6977,-0.6925
1772930398394.1704,0.0128,-0.7003,-0.6967
1772930398394.1704,0.0128,-0.6977,-0.6942
1772930398394.1704,0.0144,-0.6955,-0.694
1772930398394.1704,0.0129,-0.6955,-0.6955
1772930398409.8423,0.0132,-0.6947,-0.694
1772930398409.8423,0.0138,-0.6939,-0.6968
1772930398409.8423,0.012,-0.6909,-0.7002
1772930398409.8423,0.0112,-0.6898,-0.7003
1772930398409.8423,0.0071,-0.6888,-0.7043
1772930398409.8423,0.0062,-0.6891,-0.7041
1772930398409.8423,0.0073,-0.6887,-0.7011
1772930398409.8423,0.0054,-0.6886,-0.7056
1772930398425.139,0.0057,-0.6898,-0.7067
1772930398425.139,0.0064,-0.6879,-0.7075
1772930398425.139,0.0069,-0.6892,-0.7061
1772930398425.139,0.0056,-0.6889,-0.7086
1772930398425.139,0.0085,-0.6903,-0.707
1772930398425.139,0.0075,-0.6893,-0.705
1772930398425.139,0.0103,-0.6901,-0.705
1772930398425.139,0.0096,-0.6916,-0.6999
1772930398441.8093,0.0116,-0.6932,-0.6974
1772930398441.8093,0.0136,-0.6987,-0.6895
1772930398441.8093,0.0154,-0.6997,-0.6868
1772930398441.8093,0.0167,-0.7041,-0.6788
1772930398441.8093,0.0196,-0.7046,-0.677
1772930398441.8093,0.0178,-0.6986,-0.681
1772930398441.8093,0.0169,-0.6954,-0.6809
1772930398441.8093,0.0111,-0.6896,-0.6845
1772930398456.9653,0.006,-0.6848,-0.6838
1772930398456.9653,0.0034,-0.6822,-0.6845
1772930398456.9653,0.0026,-0.6811,-0.6834
1772930398456.9653,0.0014,-0.6806,-0.6887
1772930398456.9653,0.0017,-0.679,-0.6927
1772930398456.9653,0.0023,-0.6758,-0.6984
1772930398471.6746,-0.0009,-0.6756,-0.7039
1772930398471.6746,-0.0035,-0.6749,-0.7086
1772930398471.6746,-0.004,-0.6783,-0.7084
1772930398471.6746,-0.0001,-0.6805,-0.7106
1772930398471.6746,0.0053,-0.6816,-0.7141
1772930398471.6746,0.0079,-0.6798,-0.7155
1772930398471.6746,0.0121,-0.6823,-0.7159
1772930398471.6746,0.0163,-0.6805,-0.7149
1772930398487.75,0.0207,-0.6787,-0.7096
1772930398487.75,0.0219,-0.6794,-0.7119
1772930398487.75,0.0273,-0.6753,-0.7067
1772930398487.75,0.0297,-0.6722,-0.7092
1772930398487.75,0.0327,-0.6704,-0.7083
1772930398487.75,0.0328,-0.6703,-0.7067
1772930398487.75,0.0314,-0.6708,-0.7014
1772930398487.75,0.0309,-0.675,-0.7015
1772930398503.776,0.0325,-0.6814,-0.6911
1772930398503.776,0.0354,-0.6902,-0.6914
1772930398503.776,0.0366,-0.6908,-0.6859
1772930398503.776,0.0362,-0.6941,-0.6827
1772930398503.776,0.0329,-0.6955,-0.6804
1772930398503.776,0.0315,-0.6959,-0.6784
1772930398503.776,0.0246,-0.6966,-0.6766
1772930398503.776,0.0215,-0.6984,-0.6768
1772930398519.4363,0.0154,-0.6982,-0.677
1772930398519.4363,0.018,-0.6991,-0.6807
1772930398519.4363,0.0127,-0.6969,-0.6791
1772930398519.4363,0.0098,-0.6935,-0.6856
1772930398519.4363,0.0045,-0.6935,-0.687
1772930398519.4363,0.0009,-0.6917,-0.6921
1772930398519.4363,-0.0005,-0.6913,-0.697
1772930398519.4363,-0.0004,-0.6903,-0.6993
1772930398534.7554,-0.0032,-0.6866,-0.6997
1772930398534.7554,-0.0027,-0.6892,-0.7083
1772930398534.7554,0.0041,-0.6909,-0.711
1772930398534.7554,0.002,-0.6873,-0.7089
1772930398534.7554,0.0034,-0.6904,-0.7169
1772930398550.8684,0.007,-0.6905,-0.7146
1772930398550.8684,0.0101,-0.6901,-0.7166
1772930398550.8684,0.0117,-0.6906,-0.7183
1772930398550.8684,0.0149,-0.6898,-0.7191
1772930398550.8684,0.0189,-0.6895,-0.7202
1772930398550.8684,0.0188,-0.6894,-0.7185
1772930398550.8684,0.0235,-0.6862,-0.7174
1772930398550.8684,0.0232,-0.6863,-0.7185
1772930398566.0112,0.0257,-0.6867,-0.716
1772930398566.0112,0.0288,-0.6828,-0.7169
1772930398566.0112,0.0303,-0.6849,-0.7131
1772930398566.0112,0.0321,-0.6854,-0.7094
1772930398566.0112,0.0312,-0.6861,-0.7097
1772930398566.0112,0.0326,-0.6853,-0.7042
1772930398566.0112,0.0303,-0.6856,-0.7019
1772930398566.0112,0.0307,-0.6861,-0.7042
1772930398581.139,0.0302,-0.6861,-0.7026
1772930398581.139,0.0287,-0.6891,-0.7037
1772930398581.139,0.0298,-0.6872,-0.7046
1772930398581.139,0.0282,-0.6833,-0.707
1772930398581.139,0.0256,-0.6844,-0.7075
1772930398581.139,0.0234,-0.6843,-0.7056
1772930398581.139,0.02,-0.6812,-0.7071
1772930398581.139,0.0159,-0.6829,-0.7049
1772930398596.9512,0.016,-0.6819,-0.7051
1772930398596.9512,0.0151,-0.6824,-0.6986
1772930398596.9512,0.0118,-0.6806,-0.7011
1772930398596.9512,0.0126,-0.6818,-0.7006
1772930398596.9512,0.0112,-0.6819,-0.7005
1772930398596.9512,0.0091,-0.6818,-0.6953
1772930398596.9512,0.0085,-0.6823,-0.694
1772930398596.9512,0.0097,-0.6816,-0.6955
1772930398612.2146,0.0076,-0.6826,-0.6959
1772930398612.2146,0.0056,-0.6843,-0.6959
1772930398612.2146,0.0038,-0.6836,-0.6952
1772930398612.2146,0.0003,-0.6816,-0.6994
1772930398612.2146,-0.0005,-0.683,-0.6993
1772930398627.849,-0.0023,-0.6833,-0.6974
1772930398627.849,-0.0027,-0.682,-0.7013
1772930398627.849,-0.0034,-0.6837,-0.6995
1772930398627.849,-0.0046,-0.6844,-0.7045
1772930398627.849,-0.0068,-0.6823,-0.7038
1772930398627.849,-0.0043,-0.6828,-0.7044
1772930398627.849,-0.0051,-0.6795,-0.7024
1772930398627.849,-0.0051,-0.6812,-0.705
1772930398642.9824,-0.0043,-0.6795,-0.7041
1772930398642.9824,-0.0023,-0.6784,-0.7042
1772930398642.9824,-0.0038,-0.6773,-0.7046
1772930398642.9824,-0.0007,-0.6785,-0.7024
1772930398642.9824,0.002,-0.6783,-0.7033
1772930398642.9824,0.006,-0.6787,-0.7015
1772930398642.9824,0.0096,-0.6772,-0.7016
1772930398642.9824,0.0088,-0.6792,-0.6972
1772930398658.5725,0.0123,-0.6811,-0.6983
1772930398658.5725,0.0147,-0.6795,-0.6955
1772930398658.5725,0.0176,-0.6813,-0.6975
1772930398658.5725,0.0155,-0.6825,-0.6963
1772930398658.5725,0.0163,-0.6828,-0.6983
1772930398658.5725,0.0173,-0.6819,-0.6962
1772930398658.5725,0.0173,-0.6813,-0.6941
1772930398658.5725,0.0218,-0.683,-0.697
1772930398674.197,0.0223,-0.6842,-0.6949
1772930398674.197,0.0225,-0.6841,-0.6975
1772930398674.197,0.0226,-0.6825,-0.6949
1772930398674.197,0.0255,-0.687,-0.6978
1772930398674.197,0.0243,-0.6846,-0.6967
1772930398674.197,0.0286,-0.6855,-0.6964
1772930398674.197,0.0292,-0.682,-0.6947
1772930398674.197,0.028,-0.6811,-0.6952
1772930398690.1306,0.03,-0.68,-0.6965
1772930398690.1306,0.03,-0.6792,-0.6956
1772930398690.1306,0.0314,-0.6784,-0.6945
1772930398690.1306,0.0314,-0.6785,-0.6958
1772930398690.1306,0.0307,-0.6767,-0.6959
1772930398706.1218,0.0278,-0.6773,-0.6943
1772930398706.1218,0.0266,-0.6783,-0.6958
1772930398706.1218,0.0289,-0.6768,-0.6987
1772930398706.1218,0.0225,-0.6742,-0.6994
1772930398706.1218,0.0232,-0.6726,-0.703
1772930398706.1218,0.0216,-0.6701,-0.7011
1772930398706.1218,0.0182,-0.6739,-0.7027
1772930398706.1218,0.0158,-0.6712,-0.7043
1772930398722.1848,0.0127,-0.6714,-0.7037
1772930398722.1848,0.0082,-0.6763,-0.7013
1772930398722.1848,0.0053,-0.674,-0.7094
1772930398722.1848,0.0029,-0.6717,-0.7116
1772930398722.1848,-0.002,-0.6725,-0.7126
1772930398722.1848,-0.0048,-0.6717,-0.7111
1772930398722.1848,-0.0091,-0.6755,-0.7097
1772930398722.1848,-0.0092,-0.677,-0.7094
1772930398738.0317,-0.0087,-0.6837,-0.7083
1772930398738.0317,-0.0109,-0.6868,-0.7113
1772930398738.0317,-0.0088,-0.6879,-0.7082
1772930398738.0317,-0.0096,-0.6891,-0.7068
1772930398738.0317,-0.0103,-0.6909,-0.7017
1772930398738.0317,-0.0095,-0.6916,-0.7015
1772930398738.0317,-0.0096,-0.6922,-0.6878
1772930398753.4844,-0.0056,-0.6936,-0.694
1772930398753.4844,-0.0065,-0.6952,-0.6966
1772930398753.4844,-0.0034,-0.6919,-0.6984
1772930398753.4844,-0.0021,-0.6946,-0.6996
1772930398753.4844,-0.0052,-0.6953,-0.7006
1772930398753.4844,-0.0028,-0.693,-0.6998
1772930398753.4844,-0.002,-0.6917,-0.6998
1772930398753.4844,0.0,-0.6942,-0.701
1772930398768.2607,-0.0014,-0.6927,-0.6999
1772930398768.2607,0.006,-0.6959,-0.6989
1772930398768.2607,0.0059,-0.6951,-0.7022
1772930398768.2607,0.0084,-0.6961,-0.7006
1772930398768.2607,0.0112,-0.6941,-0.7026
1772930398768.2607,0.0158,-0.6938,-0.7028
1772930398768.2607,0.0153,-0.6945,-0.7022
1772930398768.2607,0.0153,-0.6965,-0.702
1772930398783.9114,0.0175,-0.6971,-0.7013
1772930398783.9114,0.0189,-0.6953,-0.7043
1772930398783.9114,0.0198,-0.6969,-0.6998
1772930398783.9114,0.0206,-0.6941,-0.7039
1772930398783.9114,0.0199,-0.6961,-0.6983
1772930398798.6567,0.0224,-0.6972,-0.6988
1772930398798.6567,0.0193,-0.6961,-0.7011
1772930398798.6567,0.0187,-0.6933,-0.6988
1772930398798.6567,0.0174,-0.6955,-0.6978
1772930398798.6567,0.0178,-0.6917,-0.697
1772930398798.6567,0.0133,-0.6909,-0.7002
1772930398798.6567,0.0151,-0.6889,-0.6984
1772930398798.6567,0.0125,-0.6887,-0.7022
1772930398814.7234,0.0106,-0.6886,-0.6994
1772930398814.7234,0.0087,-0.6888,-0.7012
1772930398814.7234,0.0071,-0.6889,-0.6999
1772930398814.7234,0.0077,-0.6881,-0.7003
1772930398814.7234,0.0049,-0.6852,-0.7001
1772930398814.7234,0.0054,-0.6858,-0.7016
1772930398814.7234,0.0049,-0.6847,-0.7012
1772930398814.7234,0.0059,-0.6823,-0.6989
1772930398830.8281,0.0054,-0.6832,-0.7027
1772930398830.8281,0.0034,-0.6819,-0.7001
1772930398830.8281,0.0047,-0.6797,-0.6982
1772930398830.8281,0.0055,-0.6803,-0.6994
1772930398830.8281,0.0048,-0.677,-0.7003
1772930398830.8281,0.006,-0.6734,-0.699
1772930398830.8281,0.0088,-0.6746,-0.6967
1772930398830.8281,0.0111,-0.6746,-0.7002
1772930398846.2485,0.0131,-0.6743,-0.6982
1772930398846.2485,0.0134,-0.6749,-0.6975
1772930398846.2485,0.016,-0.6729,-0.6969
1772930398846.2485,0.0199,-0.6745,-0.6953
1772930398846.2485,0.022,-0.6749,-0.6925
1772930398846.2485,0.0211,-0.6757,-0.6909
1772930398846.2485,0.023,-0.6787,-0.6964
1772930398846.2485,0.0248,-0.6805,-0.6947
1772930398861.9548,0.0243,-0.6809,-0.6958
1772930398861.9548,0.0251,-0.6808,-0.6973
1772930398861.9548,0.0271,-0.6807,-0.6981
1772930398861.9548,0.027,-0.6839,-0.6989
1772930398861.9548,0.0253,-0.6842,-0.6984
1772930398861.9548,0.0241,-0.6805,-0.7011
1772930398878.0742,0.0256,-0.6788,-0.7005
1772930398878.0742,0.0235,-0.6805,-0.7014
1772930398878.0742,0.0239,-0.6797,-0.6993
1772930398878.0742,0.0224,-0.6826,-0.7
1772930398878.0742,0.0204,-0.6852,-0.7006
1772930398878.0742,0.0204,-0.6855,-0.7024
1772930398878.0742,0.0167,-0.6867,-0.7033
1772930398878.0742,0.0156,-0.6866,-0.7022
1772930398894.0654,0.016,-0.684,-0.7045
1772930398894.0654,0.0155,-0.6841,-0.7061
1772930398894.0654,0.0143,-0.6837,-0.7047
1772930398894.0654,0.0143,-0.684,-0.7022
1772930398894.0654,0.0144,-0.6869,-0.706
1772930398894.0654,0.0143,-0.688,-0.7035
1772930398894.0654,0.0124,-0.6918,-0.701
1772930398894.0654,0.0082,-0.6938,-0.7009
1772930398909.8164,0.0091,-0.6945,-0.7006
1772930398909.8164,0.0085,-0.6965,-0.7029
1772930398909.8164,0.0076,-0.6959,-0.6999
1772930398909.8164,0.008,-0.6976,-0.7022
1772930398909.8164,0.0098,-0.6989,-0.6991
1772930398909.8164,0.0111,-0.6994,-0.7019
1772930398909.8164,0.0103,-0.6992,-0.7005
1772930398909.8164,0.0119,-0.6963,-0.7011
1772930398925.8472,0.0151,-0.696,-0.6984
1772930398925.8472,0.0121,-0.6944,-0.6975
1772930398925.8472,0.0146,-0.6949,-0.6995
1772930398925.8472,0.0132,-0.6929,-0.6965
1772930398925.8472,0.0154,-0.6898,-0.6982
1772930398925.8472,0.0135,-0.6895,-0.7015
1772930398925.8472,0.0145,-0.686,-0.6983
1772930398925.8472,0.0168,-0.683,-0.6987
1772930398941.2214,0.0131,-0.6837,-0.6994
1772930398941.2214,0.0146,-0.6819,-0.7014
1772930398941.2214,0.0149,-0.6823,-0.6991
1772930398941.2214,0.015,-0.6772,-0.6963
1772930398941.2214,0.0131,-0.6783,-0.6983
1772930398941.2214,0.0148,-0.678,-0.7011
1772930398941.2214,0.0131,-0.6775,-0.6974
1772930398941.2214,0.012,-0.6778,-0.7019
1772930398957.0803,0.0151,-0.6762,-0.6993
1772930398957.0803,0.0144,-0.6759,-0.6997
1772930398957.0803,0.0123,-0.6759,-0.7027
1772930398957.0803,0.0146,-0.6777,-0.7008
1772930398957.0803,0.0131,-0.6767,-0.6995
1772930398973.1743,0.0163,-0.6754,-0.6983
1772930398973.1743,0.0137,-0.6748,-0.7001
1772930398973.1743,0.0174,-0.6758,-0.6945
1772930398973.1743,0.0168,-0.6765,-0.697
1772930398973.1743,0.0165,-0.6774,-0.6939
1772930398973.1743,0.0175,-0.6761,-0.6969
1772930398973.1743,0.0207,-0.6758,-0.6949
1772930398973.1743,0.0175,-0.6758,-0.6997
1772930398987.944,0.0199,-0.6731,-0.7014
1772930398987.944,0.0181,-0.677,-0.7001
1772930398987.944,0.0166,-0.6763,-0.7012
1772930398987.944,0.0181,-0.677,-0.6992
1772930398987.944,0.0184,-0.6792,-0.6982
1772930398987.944,0.0192,-0.6813,-0.6999
1772930398987.944,0.0191,-0.6805,-0.7019
1772930398987.944,0.0217,-0.6792,-0.7004
1772930399003.5364,0.0203,-0.6795,-0.7035
1772930399003.5364,0.0179,-0.6794,-0.7025
1772930399003.5364,0.0153,-0.6794,-0.7064
1772930399003.5364,0.0149,-0.6785,-0.7031
1772930399003.5364,0.0133,-0.681,-0.7036
1772930399003.5364,0.0106,-0.6845,-0.7013
1772930399003.5364,0.0045,-0.6845,-0.7006
1772930399003.5364,0.0023,-0.6866,-0.704
1772930399019.5793,0.003,-0.6886,-0.7033
1772930399019.5793,0.0054,-0.6925,-0.7016
1772930399019.5793,0.0045,-0.6887,-0.7039
1772930399019.5793,0.0013,-0.6926,-0.7003
1772930399019.5793,0.0013,-0.6919,-0.7005
1772930399019.5793,0.0017,-0.6917,-0.701
1772930399019.5793,0.0021,-0.6902,-0.7004
1772930399019.5793,0.0041,-0.6933,-0.7006
1772930399034.7607,0.0014,-0.6913,-0.6978
1772930399034.7607,0.005,-0.6919,-0.7005
1772930399034.7607,0.0058,-0.6933,-0.6983
1772930399034.7607,0.0058,-0.6926,-0.6997
1772930399034.7607,0.006,-0.6907,-0.6993
1772930399051.046,0.0063,-0.6927,-0.6996
1772930399051.046,0.0065,-0.6927,-0.6969
1772930399051.046,0.0091,-0.6898,-0.6966
1772930399051.046,0.0118,-0.6909,-0.6969
1772930399051.046,0.0154,-0.6889,-0.6945
1772930399051.046,0.0169,-0.69,-0.6983
1772930399051.046,0.017,-0.6925,-0.6928
1772930399051.046,0.0166,-0.6931,-0.6992
1772930399066.5825,0.022,-0.6916,-0.6952
1772930399066.5825,0.0196,-0.6923,-0.6949
1772930399066.5825,0.0255,-0.693,-0.6941
1772930399066.5825,0.0242,-0.6948,-0.6943
1772930399066.5825,0.0261,-0.6938,-0.6969
1772930399066.5825,0.0263,-0.6913,-0.6945
1772930399066.5825,0.0293,-0.6916,-0.6958
1772930399066.5825,0.0298,-0.6926,-0.698
1772930399081.9998,0.0279,-0.6903,-0.6974
1772930399081.9998,0.0304,-0.6913,-0.6941
1772930399081.9998,0.0303,-0.6933,-0.6969
1772930399081.9998,0.0329,-0.6965,-0.7
1772930399081.9998,0.0326,-0.6978,-0.6997
1772930399081.9998,0.0334,-0.6969,-0.7008
1772930399081.9998,0.035,-0.6944,-0.701
1772930399081.9998,0.0303,-0.696,-0.7035
1772930399097.0762,0.0307,-0.6962,-0.7018
1772930399097.0762,0.0316,-0.6968,-0.7035
1772930399097.0762,0.0336,-0.697,-0.7027
1772930399097.0762,0.0345,-0.6966,-0.7181
1772930399097.0762,0.0361,-0.6956,-0.7053
1772930399097.0762,0.0325,-0.6969,-0.7043
1772930399097.0762,0.035,-0.6949,-0.7042
1772930399097.0762,0.0356,-0.6957,-0.7028
1772930399112.862,0.0328,-0.6963,-0.7055
1772930399112.862,0.0353,-0.6934,-0.7033
1772930399112.862,0.0326,-0.6922,-0.7054
1772930399112.862,0.0351,-0.6913,-0.7058
1772930399112.862,0.0345,-0.6892,-0.7055
1772930399112.862,0.035,-0.6889,-0.7041
1772930399112.862,0.0345,-0.6893,-0.7063
1772930399112.862,0.0355,-0.6865,-0.7041
1772930399129.2598,0.0364,-0.6869,-0.7064
1772930399129.2598,0.0364,-0.6875,-0.7011
1772930399129.2598,0.0368,-0.6886,-0.7021
1772930399129.2598,0.0368,-0.6878,-0.7012
1772930399129.2598,0.037,-0.6864,-0.7013
1772930399129.2598,0.0346,-0.687,-0.702
1772930399144.3855,0.0346,-0.6863,-0.701
1772930399144.3855,0.0323,-0.683,-0.7019
1772930399144.3855,0.0345,-0.6837,-0.7035
1772930399144.3855,0.0317,-0.6816,-0.7035
1772930399144.3855,0.0328,-0.6802,-0.7027
1772930399144.3855,0.0339,-0.6831,-0.7049
1772930399144.3855,0.0296,-0.6842,-0.7031
1772930399144.3855,0.0314,-0.6839,-0.7059
1772930399159.2502,0.0293,-0.6846,-0.7037
1772930399159.2502,0.0281,-0.6886,-0.7058
1772930399159.2502,0.0279,-0.6862,-0.708
1772930399159.2502,0.0274,-0.6893,-0.7071
1772930399159.2502,0.0259,-0.6903,-0.7095
1772930399159.2502,0.0259,-0.6888,-0.7085
1772930399159.2502,0.0218,-0.69,-0.7081
1772930399159.2502,0.0208,-0.6895,-0.7099
1772930399175.3386,0.022,-0.6913,-0.7085
1772930399175.3386,0.0201,-0.6944,-0.7091
1772930399175.3386,0.0209,-0.6936,-0.7094
1772930399175.3386,0.0209,-0.6973,-0.7086
1772930399175.3386,0.0228,-0.6968,-0.7092
1772930399175.3386,0.0223,-0.7016,-0.712
1772930399175.3386,0.0196,-0.6958,-0.7081
1772930399175.3386,0.0198,-0.6988,-0.7113
1772930399190.8997,0.023,-0.6984,-0.7161
1772930399190.8997,0.0139,-0.6943,-0.7083
1772930399190.8997,0.0124,-0.6925,-0.7107
1772930399190.8997,0.0089,-0.7016,-0.7146
1772930399190.8997,0.0163,-0.7028,-0.7014
1772930399190.8997,0.0178,-0.6897,-0.7013
1772930399190.8997,0.0134,-0.6903,-0.7039
1772930399190.8997,0.0101,-0.6961,-0.7075
1772930399205.941,0.0094,-0.6991,-0.7076
1772930399205.941,0.0132,-0.7009,-0.7087
1772930399205.941,0.0124,-0.6984,-0.7097
1772930399205.941,0.0127,-0.6995,-0.7081
1772930399205.941,0.0132,-0.6968,-0.7032
1772930399221.2136,0.0128,-0.6954,-0.7045
1772930399221.2136,0.0135,-0.6916,-0.7014
1772930399221.2136,0.0112,-0.6917,-0.7017
1772930399221.2136,0.0154,-0.6894,-0.701
1772930399221.2136,0.0135,-0.6873,-0.7009
1772930399221.2136,0.0159,-0.6864,-0.6981
1772930399221.2136,0.0159,-0.6858,-0.6969
1772930399221.2136,0.0178,-0.6841,-0.6967
1772930399236.8572,0.0239,-0.6867,-0.6935
1772930399236.8572,0.0198,-0.6834,-0.6942
1772930399236.8572,0.0167,-0.6841,-0.6939
1772930399236.8572,0.0172,-0.6894,-0.6914
1772930399236.8572,0.017,-0.6902,-0.6913
1772930399236.8572,0.0169,-0.6908,-0.6933
1772930399236.8572,0.0171,-0.6908,-0.6916
1772930399236.8572,0.0193,-0.6892,-0.6917
1772930399252.1033,0.0179,-0.6905,-0.694
1772930399252.1033,0.0212,-0.6899,-0.6906
1772930399252.1033,0.0203,-0.6903,-0.6894
1772930399252.1033,0.0196,-0.6915,-0.6884
1772930399252.1033,0.0213,-0.6906,-0.6874
1772930399252.1033,0.0201,-0.6924,-0.6827
1772930399252.1033,0.0206,-0.6941,-0.6855
1772930399252.1033,0.0179,-0.6906,-0.6824
1772930399267.7869,0.0176,-0.6882,-0.6842
1772930399267.7869,0.0198,-0.6853,-0.6834
1772930399267.7869,0.0193,-0.6864,-0.6823
1772930399267.7869,0.0204,-0.686,-0.6817
1772930399267.7869,0.0203,-0.6853,-0.6845
1772930399283.0269,0.0185,-0.684,-0.6839
1772930399283.0269,0.0214,-0.6831,-0.6814
1772930399283.0269,0.0221,-0.6829,-0.6826
1772930399283.0269,0.0211,-0.6809,-0.683
1772930399283.0269,0.0216,-0.6792,-0.6834
1772930399283.0269,0.0198,-0.6823,-0.6826
1772930399283.0269,0.0183,-0.6798,-0.6831
1772930399283.0269,0.0166,-0.678,-0.6843
1772930399298.7285,0.0022,-0.6786,-0.6847
1772930399298.7285,0.0154,-0.6798,-0.6846
1772930399298.7285,0.0171,-0.6802,-0.6865
1772930399298.7285,0.0137,-0.6784,-0.6873
1772930399298.7285,0.0139,-0.6763,-0.6858
1772930399298.7285,0.0136,-0.6803,-0.6878
1772930399298.7285,0.0129,-0.6786,-0.6862
1772930399298.7285,0.015,-0.6784,-0.6871
1772930399314.7214,0.0109,-0.6767,-0.6892
1772930399314.7214,0.0088,-0.6759,-0.6875
1772930399314.7214,0.0075,-0.6761,-0.6907
1772930399314.7214,0.0073,-0.6745,-0.6915
1772930399314.7214,0.0015,-0.6777,-0.692
1772930399314.7214,0.0019,-0.6758,-0.6916
1772930399314.7214,0.0016,-0.6776,-0.6926
1772930399314.7214,0.0021,-0.6797,-0.6938
1772930399330.83,-0.0155,-0.6795,-0.6913
1772930399330.83,-0.0013,-0.6808,-0.6921
1772930399330.83,-0.0015,-0.6844,-0.6914
1772930399330.83,0.0007,-0.6887,-0.6883
1772930399330.83,-0.0004,-0.6898,-0.6724
1772930399330.83,0.0014,-0.6964,-0.6871
1772930399330.83,0.0012,-0.7017,-0.6797
1772930399330.83,0.0055,-0.7071,-0.6734
1772930399346.151,0.008,-0.7049,-0.6737
1772930399346.151,0.0055,-0.7087,-0.6737
1772930399346.151,0.0065,-0.701,-0.6797
1772930399346.151,0.0063,-0.6974,-0.6781
1772930399346.151,0.0057,-0.6947,-0.6802
1772930399346.151,0.0012,-0.6919,-0.6795
1772930399346.151,-0.0011,-0.6953,-0.6799
1772930399346.151,0.0005,-0.6999,-0.6853
1772930399361.7659,0.0031,-0.6993,-0.6916
1772930399361.7659,-0.0041,-0.6967,-0.7017
1772930399361.7659,-0.0018,-0.6959,-0.7074
1772930399361.7659,-0.0052,-0.693,-0.7161
1772930399361.7659,-0.0038,-0.6948,-0.7153
1772930399378.068,-0.0019,-0.6965,-0.7213
1772930399378.068,0.0009,-0.6973,-0.7244
1772930399378.068,0.0035,-0.6995,-0.7256
1772930399378.068,0.0066,-0.6941,-0.7269
1772930399378.068,0.0089,-0.6911,-0.7283
1772930399378.068,0.0104,-0.6877,-0.7262
1772930399378.068,0.0082,-0.6816,-0.7311
1772930399378.068,0.0084,-0.6798,-0.7197
1772930399393.1108,0.026,-0.6785,-0.7199
1772930399393.1108,0.0325,-0.6856,-0.7197
1772930399393.1108,0.0339,-0.687,-0.7203
1772930399393.1108,0.0337,-0.6872,-0.7189
1772930399393.1108,0.0339,-0.6906,-0.7156
1772930399393.1108,0.0352,-0.6922,-0.7079
1772930399393.1108,0.0389,-0.6902,-0.7026
1772930399393.1108,0.0519,-0.6762,-0.6997
1772930399408.7224,0.0495,-0.6947,-0.6988
1772930399408.7224,0.041,-0.7,-0.688
1772930399408.7224,0.0398,-0.6906,-0.6811
1772930399408.7224,0.0406,-0.6807,-0.6748
1772930399408.7224,0.039,-0.6831,-0.6776
1772930399408.7224,0.0389,-0.6842,-0.6794
1772930399408.7224,0.0354,-0.685,-0.6787
1772930399408.7224,0.0345,-0.682,-0.6775
1772930399424.138,0.0353,-0.6764,-0.6836
1772930399424.138,0.0268,-0.6595,-0.6871
1772930399424.138,0.0192,-0.6701,-0.6798
1772930399424.138,0.0098,-0.688,-0.6772
1772930399424.138,0.0102,-0.698,-0.6812
1772930399424.138,0.0059,-0.6934,-0.696
1772930399424.138,0.0065,-0.6873,-0.7046
1772930399424.138,0.002,-0.6776,-0.7085
1772930399440.3066,-0.001,-0.6758,-0.7135
1772930399440.3066,-0.0001,-0.6779,-0.7147
1772930399440.3066,0.0007,-0.6764,-0.7157
1772930399440.3066,0.0003,-0.6772,-0.7155
1772930399440.3066,0.0018,-0.6755,-0.717
1772930399440.3066,0.0026,-0.6758,-0.718
1772930399455.8992,0.0049,-0.6802,-0.7188
1772930399455.8992,0.0083,-0.6778,-0.7174
1772930399455.8992,0.0069,-0.6786,-0.7158
1772930399455.8992,0.0093,-0.6789,-0.7126
1772930399455.8992,0.0135,-0.6802,-0.7128
1772930399455.8992,0.0145,-0.6786,-0.7125
1772930399455.8992,0.0184,-0.6792,-0.7123
1772930399455.8992,0.0215,-0.6806,-0.7094
1772930399472.0242,0.022,-0.6794,-0.7064
1772930399472.0242,0.022,-0.6822,-0.7064
1772930399472.0242,0.0223,-0.6828,-0.7038
1772930399472.0242,0.0229,-0.6812,-0.7063
1772930399472.0242,0.0204,-0.6828,-0.7081
1772930399472.0242,0.0195,-0.6808,-0.7044
1772930399472.0242,0.0157,-0.6802,-0.7076
1772930399472.0242,0.0146,-0.6836,-0.7069
1772930399488.133,0.0149,-0.6794,-0.7075
1772930399488.133,0.0138,-0.68,-0.704
1772930399488.133,0.0109,-0.6815,-0.7029
1772930399488.133,0.0098,-0.6788,-0.7035
1772930399488.133,0.008,-0.6772,-0.7059
1772930399488.133,0.0069,-0.6792,-0.7044
1772930399488.133,0.0063,-0.6775,-0.7037
1772930399488.133,0.0051,-0.6795,-0.7015
1772930399503.743,0.0071,-0.6794,-0.7016
1772930399503.743,0.0057,-0.678,-0.6999
1772930399503.743,0.0052,-0.6805,-0.7008
1772930399503.743,0.0079,-0.682,-0.6991
1772930399503.743,0.0062,-0.6811,-0.6995
1772930399503.743,0.0073,-0.682,-0.6986
1772930399503.743,0.0063,-0.6827,-0.697
1772930399503.743,0.0075,-0.6841,-0.6982
1772930399518.5825,0.0047,-0.6827,-0.6994
1772930399518.5825,0.0077,-0.6806,-0.6973
1772930399518.5825,0.0076,-0.6794,-0.6981
1772930399518.5825,0.0076,-0.6808,-0.6974
1772930399518.5825,0.006,-0.6807,-0.695
1772930399518.5825,0.0065,-0.6805,-0.6967
1772930399518.5825,0.0059,-0.682,-0.6984
1772930399518.5825,0.0076,-0.6809,-0.6981
1772930399534.848,0.0063,-0.6826,-0.7
1772930399534.848,0.0047,-0.6816,-0.698
1772930399534.848,0.004,-0.6812,-0.6997
1772930399534.848,0.0035,-0.683,-0.7013
1772930399534.848,0.0057,-0.6815,-0.6996
1772930399534.848,0.0032,-0.6809,-0.7014
1772930399534.848,0.0021,-0.6811,-0.7027
1772930399534.848,0.004,-0.6811,-0.706
1772930399551.147,0.001,-0.6808,-0.7047
1772930399551.147,0.0056,-0.6792,-0.7
1772930399551.147,0.0075,-0.6791,-0.703
1772930399551.147,0.0049,-0.6787,-0.7028
1772930399551.147,0.0083,-0.6798,-0.7019
1772930399566.793,0.0082,-0.6785,-0.7026
1772930399566.793,0.0069,-0.6814,-0.7041
1772930399566.793,0.0081,-0.6808,-0.7008
1772930399566.793,0.0087,-0.6828,-0.6991
1772930399566.793,0.0062,-0.6787,-0.701
1772930399566.793,0.0076,-0.6825,-0.6991
1772930399566.793,0.0102,-0.6825,-0.6979
1772930399566.793,0.0105,-0.6809,-0.6966
1772930399582.023,0.0143,-0.6831,-0.6954
1772930399582.023,0.0151,-0.6842,-0.696
1772930399582.023,0.0143,-0.6841,-0.699
1772930399582.023,0.0131,-0.6841,-0.6972
1772930399582.023,0.0128,-0.6848,-0.6981
1772930399582.023,0.0147,-0.6864,-0.7014
1772930399582.023,0.0158,-0.6829,-0.6998
1772930399582.023,0.0157,-0.6841,-0.7031
1772930399597.1472,0.0155,-0.6842,-0.703
1772930399597.1472,0.0162,-0.6832,-0.7049
1772930399597.1472,0.0162,-0.6837,-0.7028
1772930399597.1472,0.0176,-0.6835,-0.7039
1772930399597.1472,0.0173,-0.6852,-0.7046
1772930399597.1472,0.0149,-0.6849,-0.7047
1772930399597.1472,0.0135,-0.6868,-0.7081
1772930399597.1472,0.0138,-0.6844,-0.7101
1772930399612.2205,0.0111,-0.6859,-0.7084
1772930399612.2205,0.0091,-0.6881,-0.7092
1772930399612.2205,0.0086,-0.6864,-0.7082
1772930399612.2205,0.0114,-0.6901,-0.7114
1772930399612.2205,0.0171,-0.6871,-0.7159
1772930399627.8352,0.0212,-0.6826,-0.7177
1772930399627.8352,0.0235,-0.6823,-0.7158
1772930399627.8352,0.0246,-0.6945,-0.7146
1772930399627.8352,0.0197,-0.6924,-0.7067
1772930399627.8352,0.0152,-0.6929,-0.7055
1772930399627.8352,0.0172,-0.6963,-0.7052
1772930399627.8352,0.024,-0.6986,-0.7097
1772930399627.8352,0.0243,-0.7038,-0.715
1772930399643.0798,0.0276,-0.7028,-0.7058
1772930399643.0798,0.0203,-0.6897,-0.6955
1772930399643.0798,0.0178,-0.685,-0.6936
1772930399643.0798,0.0123,-0.6837,-0.6925
1772930399643.0798,0.0099,-0.683,-0.6949
1772930399643.0798,0.009,-0.6886,-0.6912
1772930399643.0798,0.0107,-0.6941,-0.6927
1772930399643.0798,0.0083,-0.6957,-0.6925
1772930399658.699,0.0082,-0.6963,-0.6889
1772930399658.699,0.0029,-0.6927,-0.6908
1772930399658.699,-0.0005,-0.6905,-0.6919
1772930399658.699,-0.005,-0.6867,-0.6923
1772930399658.699,-0.0035,-0.683,-0.6942
1772930399658.699,-0.0067,-0.684,-0.6978
1772930399658.699,-0.0101,-0.6853,-0.6983
1772930399658.699,-0.0098,-0.6853,-0.7002
1772930399673.8293,-0.0127,-0.6839,-0.7015
1772930399673.8293,-0.011,-0.6819,-0.7052
1772930399673.8293,-0.0049,-0.6799,-0.706
1772930399673.8293,-0.0126,-0.6782,-0.7108
1772930399673.8293,-0.0227,-0.6799,-0.7094
1772930399673.8293,-0.0203,-0.6914,-0.7127
1772930399673.8293,-0.0092,-0.7039,-0.7046
1772930399673.8293,-0.0013,-0.7032,-0.6944
1772930399689.0005,0.0043,-0.7031,-0.6949
1772930399689.0005,0.0138,-0.7003,-0.6945
1772930399689.0005,0.0125,-0.6942,-0.6997
1772930399689.0005,0.0104,-0.6895,-0.6984
1772930399689.0005,0.0094,-0.6878,-0.6983
1772930399703.6636,0.009,-0.6875,-0.6962
1772930399703.6636,0.0068,-0.6881,-0.696
1772930399703.6636,0.0093,-0.6877,-0.6955
1772930399703.6636,0.0104,-0.6867,-0.6977
1772930399703.6636,0.0117,-0.6854,-0.6978
1772930399703.6636,0.0106,-0.6873,-0.6977
1772930399703.6636,0.0126,-0.6881,-0.6969
1772930399703.6636,0.0124,-0.6879,-0.6978
1772930399718.981,0.0142,-0.6908,-0.6987
1772930399718.981,0.016,-0.692,-0.6981
1772930399718.981,0.0185,-0.6933,-0.6978
1772930399718.981,0.0179,-0.693,-0.6972
1772930399718.981,0.0183,-0.6924,-0.6974
1772930399718.981,0.0199,-0.6924,-0.6985
1772930399718.981,0.0193,-0.6871,-0.6969
1772930399718.981,0.0201,-0.6847,-0.6983
1772930399734.586,0.0176,-0.6808,-0.6953
1772930399734.586,0.0206,-0.6768,-0.7004
1772930399734.586,0.0247,-0.678,-0.6999
1772930399734.586,0.0295,-0.6847,-0.6969
1772930399734.586,0.0261,-0.6891,-0.6986
1772930399750.2092,0.0213,-0.6891,-0.698
1772930399750.2092,0.0191,-0.6897,-0.6985
1772930399750.2092,0.0174,-0.6856,-0.7005
1772930399750.2092,0.0173,-0.6873,-0.7016
1772930399750.2092,0.0111,-0.6915,-0.7006
1772930399750.2092,0.0124,-0.6895,-0.7076
1772930399750.2092,0.0106,-0.6902,-0.7061
1772930399750.2092,0.0092,-0.6913,-0.7064
1772930399765.7874,0.0078,-0.6924,-0.7096
1772930399765.7874,0.0135,-0.6897,-0.7092
1772930399765.7874,0.0102,-0.6886,-0.7072
1772930399765.7874,0.0101,-0.6889,-0.7069
1772930399765.7874,0.0107,-0.6909,-0.7113
1772930399765.7874,0.0092,-0.6888,-0.7106
1772930399765.7874,0.0071,-0.6896,-0.708
1772930399765.7874,0.007,-0.6888,-0.7125
1772930399781.8806,0.0054,-0.6881,-0.7082
1772930399781.8806,0.0018,-0.6868,-0.7122
1772930399781.8806,0.0024,-0.6871,-0.7103
1772930399781.8806,0.0022,-0.6848,-0.711
1772930399781.8806,0.0041,-0.682,-0.7094
1772930399781.8806,0.0015,-0.6814,-0.7102
1772930399781.8806,0.0003,-0.6827,-0.7081
1772930399781.8806,0.0032,-0.6808,-0.7099
1772930399797.9497,0.002,-0.6808,-0.7086
1772930399797.9497,0.0002,-0.6804,-0.7047
1772930399797.9497,0.0027,-0.6797,-0.7077
1772930399797.9497,0.0043,-0.6792,-0.7078
1772930399797.9497,0.0028,-0.6789,-0.7066
1772930399797.9497,0.0023,-0.6817,-0.7052
1772930399797.9497,0.0019,-0.6813,-0.7028
1772930399797.9497,0.001,-0.6811,-0.7047
1772930399813.1343,-0.0005,-0.6809,-0.7026
1772930399813.1343,0.0023,-0.6822,-0.7044
1772930399813.1343,0.0017,-0.6816,-0.7033
1772930399813.1343,0.0015,-0.6839,-0.702
1772930399813.1343,0.0026,-0.6842,-0.705
1772930399813.1343,0.0044,-0.6836,-0.7005
1772930399813.1343,0.0023,-0.6821,-0.6992
1772930399813.1343,0.0007,-0.684,-0.7015
1772930399829.212,0.0018,-0.6837,-0.6995
1772930399829.212,0.0028,-0.6836,-0.6981
1772930399829.212,0.0068,-0.683,-0.6977
1772930399829.212,0.0052,-0.6837,-0.699
1772930399829.212,0.0065,-0.6834,-0.6973
1772930399829.212,0.0086,-0.682,-0.6956
1772930399844.7966,0.0104,-0.6822,-0.6966
1772930399844.7966,0.012,-0.6884,-0.6988
1772930399844.7966,0.0063,-0.687,-0.6875
1772930399844.7966,0.0002,-0.6782,-0.6987
1772930399844.7966,0.0009,-0.6805,-0.6993
1772930399844.7966,0.0059,-0.6801,-0.7034
1772930399844.7966,0.0076,-0.6808,-0.7041
1772930399844.7966,0.0082,-0.6817,-0.7053
1772930399860.8843,0.0051,-0.6808,-0.7033
1772930399860.8843,0.0023,-0.6832,-0.7026
1772930399860.8843,0.0066,-0.6838,-0.7053
1772930399860.8843,0.0066,-0.6826,-0.7033
1772930399860.8843,0.0077,-0.6841,-0.7055
1772930399860.8843,0.0081,-0.6856,-0.7062
1772930399860.8843,0.009,-0.682,-0.7023
1772930399860.8843,0.006,-0.6822,-0.7021
1772930399876.0483,0.0101,-0.6804,-0.7038
1772930399876.0483,0.0072,-0.6805,-0.7042
1772930399876.0483,0.0073,-0.6814,-0.7017
1772930399876.0483,0.0062,-0.6805,-0.7028
1772930399876.0483,0.0064,-0.6792,-0.7054
1772930399876.0483,0.0069,-0.6776,-0.7036
1772930399876.0483,0.0026,-0.6769,-0.705
1772930399876.0483,0.0063,-0.6778,-0.7033
1772930399891.9795,0.0041,-0.6767,-0.704
1772930399891.9795,0.0054,-0.6772,-0.7055
1772930399891.9795,0.0021,-0.6778,-0.7065
1772930399891.9795,0.0029,-0.6791,-0.7077
1772930399891.9795,0.0024,-0.6765,-0.7054
1772930399891.9795,0.0021,-0.6782,-0.7084
1772930399891.9795,0.0021,-0.6778,-0.7083
1772930399891.9795,0.0045,-0.677,-0.7066
1772930399907.076,0.0035,-0.6775,-0.7045
1772930399907.076,0.0027,-0.6791,-0.7061
1772930399907.076,0.0032,-0.6782,-0.7053
1772930399907.076,0.0045,-0.677,-0.7047
1772930399907.076,0.0026,-0.677,-0.7083
1772930399922.977,0.007,-0.6823,-0.707
1772930399922.977,0.0046,-0.6806,-0.7078
1772930399922.977,0.0049,-0.6812,-0.7062
1772930399922.977,0.0088,-0.6841,-0.706
1772930399922.977,0.0055,-0.6839,-0.7022
1772930399922.977,0.0021,-0.6836,-0.705
1772930399922.977,0.003,-0.683,-0.7031
1772930399922.977,0.0045,-0.6831,-0.705
1772930399938.0876,0.0046,-0.6839,-0.7037
1772930399938.0876,0.0021,-0.6818,-0.706
1772930399938.0876,0.0034,-0.6819,-0.7059
1772930399938.0876,0.0032,-0.6814,-0.7053
1772930399938.0876,-0.0005,-0.6809,-0.7047
1772930399938.0876,0.0003,-0.677,-0.7036
1772930399938.0876,0.0008,-0.6804,-0.7074
1772930399938.0876,0.004,-0.6787,-0.7035
1772930399953.6843,0.0015,-0.6788,-0.7057
1772930399953.6843,0.0037,-0.6804,-0.7049
1772930399953.6843,0.0039,-0.6805,-0.7026
1772930399953.6843,0.0042,-0.6791,-0.7033
1772930399953.6843,0.0034,-0.6779,-0.7047
1772930399953.6843,0.0005,-0.6805,-0.7053
1772930399953.6843,0.0023,-0.6782,-0.704
1772930399953.6843,0.0023,-0.6794,-0.7182
1772930399969.008,-0.001,-0.6767,-0.7074
1772930399969.008,0.0005,-0.6767,-0.7037
1772930399969.008,-0.0017,-0.6783,-0.705
1772930399969.008,-0.0035,-0.6798,-0.7055
1772930399969.008,-0.0027,-0.6784,-0.7046
1772930399969.008,-0.0041,-0.6767,-0.7056
1772930399969.008,-0.0026,-0.6767,-0.7064
1772930399969.008,-0.0019,-0.6793,-0.7056
1772930399984.6611,-0.0041,-0.6762,-0.7052
1772930399984.6611,-0.0018,-0.6773,-0.7022
1772930399984.6611,-0.0026,-0.6734,-0.7037
1772930399984.6611,-0.0018,-0.6759,-0.7048
1772930399984.6611,-0.0002,-0.6748,-0.7043
1772930399999.8125,0.0007,-0.6734,-0.706
1772930399999.8125,0.0021,-0.6737,-0.7055
1772930399999.8125,0.0023,-0.6739,-0.7026
1772930399999.8125,0.0037,-0.6731,-0.7043
1772930399999.8125,0.0024,-0.6742,-0.7049
1772930399999.8125,0.0034,-0.6762,-0.7036
1772930399999.8125,0.0013,-0.6737,-0.7055
1772930399999.8125,0.0013,-0.678,-0.7059
1772930400014.8633,0.0018,-0.676,-0.7071
1772930400014.8633,0.002,-0.6797,-0.7053
1772930400014.8633,-0.001,-0.6822,-0.7063
1772930400014.8633,0.0,-0.6825,-0.7136
1772930400014.8633,0.0016,-0.6791,-0.7082
1772930400014.8633,-0.0001,-0.6791,-0.7063
1772930400014.8633,0.0027,-0.6797,-0.7062
1772930400014.8633,0.0049,-0.6817,-0.7042
1772930400030.985,0.0059,-0.6867,-0.7034
1772930400030.985,0.0033,-0.6867,-0.7073
1772930400030.985,0.0056,-0.6997,-0.7006
1772930400030.985,0.0014,-0.6866,-0.7078
1772930400030.985,-0.0032,-0.6833,-0.7019
1772930400030.985,-0.0024,-0.6828,-0.6984
1772930400030.985,-0.0008,-0.6839,-0.7023
1772930400030.985,-0.0005,-0.6823,-0.7047
1772930400046.5593,0.0005,-0.6814,-0.7068
1772930400046.5593,0.0049,-0.678,-0.7103
1772930400046.5593,-0.0008,-0.6808,-0.7122
1772930400046.5593,0.0008,-0.6784,-0.7124
1772930400046.5593,-0.003,-0.678,-0.7094
1772930400046.5593,-0.0083,-0.6897,-0.7036
1772930400046.5593,0.0001,-0.6839,-0.7024
1772930400062.1853,0.0077,-0.6802,-0.7079
1772930400062.1853,0.0083,-0.6785,-0.7175
1772930400062.1853,0.0047,-0.6785,-0.717
1772930400062.1853,0.0023,-0.6731,-0.7184
1772930400062.1853,-0.0016,-0.6745,-0.715
1772930400062.1853,-0.0017,-0.6774,-0.7094
1772930400078.0076,-0.0035,-0.6772,-0.7133
1772930400078.0076,-0.0018,-0.6727,-0.7128
1772930400078.0076,0.0017,-0.669,-0.7149
1772930400078.0076,0.0052,-0.6688,-0.7174
1772930400078.0076,0.0029,-0.6726,-0.7155
1772930400078.0076,0.0094,-0.6762,-0.7145
1772930400078.0076,0.0176,-0.6837,-0.7193
1772930400078.0076,0.0161,-0.6903,-0.7358
1772930400093.8806,-0.0018,-0.6736,-0.7124
1772930400093.8806,-0.0038,-0.6704,-0.7008
1772930400093.8806,-0.0015,-0.6672,-0.7033
1772930400093.8806,0.0035,-0.6695,-0.7049
1772930400093.8806,0.0029,-0.6733,-0.7087
1772930400093.8806,0.0042,-0.6779,-0.7074
1772930400093.8806,0.0102,-0.6797,-0.708
1772930400109.499,0.0084,-0.6839,-0.7071
1772930400109.499,0.0063,-0.6848,-0.7074
1772930400109.499,0.0066,-0.6815,-0.7107
1772930400109.499,0.0074,-0.6829,-0.7102
1772930400109.499,0.0027,-0.6804,-0.7074
1772930400109.499,0.0041,-0.6808,-0.7089
1772930400109.499,0.0034,-0.683,-0.7072
1772930400109.499,0.004,-0.6814,-0.7078
1772930400125.3396,0.0028,-0.6837,-0.7077
1772930400125.3396,0.0042,-0.6825,-0.7034
1772930400125.3396,0.003,-0.6808,-0.7056
1772930400125.3396,0.0036,-0.6831,-0.705
1772930400125.3396,0.0041,-0.6804,-0.7036
1772930400125.3396,0.0055,-0.683,-0.7047
1772930400125.3396,0.0021,-0.6829,-0.7043
1772930400125.3396,0.0005,-0.6842,-0.7064
1772930400140.9136,0.0009,-0.6805,-0.7047
1772930400140.9136,0.0004,-0.6807,-0.7026
1772930400140.9136,-0.002,-0.6803,-0.7061
1772930400140.9136,-0.0013,-0.6766,-0.7036
1772930400140.9136,-0.0026,-0.6751,-0.7082
1772930400140.9136,-0.0026,-0.673,-0.7046
1772930400140.9136,-0.0021,-0.6726,-0.706
1772930400140.9136,-0.0028,-0.6706,-0.7061
1772930400156.9011,-0.0035,-0.6709,-0.7061
1772930400156.9011,-0.0013,-0.6714,-0.7033
1772930400156.9011,-0.0038,-0.6704,-0.7026
1772930400156.9011,-0.002,-0.6715,-0.707
1772930400156.9011,-0.0033,-0.6703,-0.7072
1772930400173.235,-0.0052,-0.673,-0.7074
1772930400173.235,-0.0038,-0.6704,-0.7099
1772930400173.235,-0.0022,-0.672,-0.7072
1772930400173.235,-0.0017,-0.6736,-0.708
1772930400173.235,-0.0001,-0.6721,-0.7077
1772930400173.235,0.0023,-0.6744,-0.7098
1772930400173.235,0.0078,-0.672,-0.7102
1772930400173.235,0.0249,-0.6688,-0.7131
1772930400189.042,0.0066,-0.6758,-0.7112
1772930400189.042,-0.0249,-0.6822,-0.7058
1772930400189.042,0.0002,-0.6984,-0.6992
1772930400189.042,0.0164,-0.7157,-0.7061
1772930400189.042,0.0052,-0.7,-0.7022
1772930400189.042,-0.0024,-0.6892,-0.6949
1772930400189.042,0.0074,-0.6924,-0.699
1772930400189.042,0.0095,-0.6899,-0.6995
1772930400203.7744,0.0101,-0.6837,-0.7024
1772930400203.7744,0.0057,-0.6817,-0.6952
1772930400203.7744,0.0023,-0.6828,-0.6959
1772930400203.7744,-0.0024,-0.6806,-0.6945
1772930400203.7744,-0.0051,-0.6764,-0.697
1772930400203.7744,-0.0059,-0.6753,-0.6979
1772930400203.7744,-0.0055,-0.6731,-0.7006
1772930400203.7744,-0.0065,-0.6683,-0.7071
1772930400219.2317,-0.0093,-0.665,-0.7113
1772930400219.2317,-0.0131,-0.6637,-0.7193
1772930400219.2317,-0.0112,-0.6661,-0.726
1772930400219.2317,-0.0136,-0.6684,-0.7279
1772930400219.2317,-0.0102,-0.6689,-0.7321
1772930400219.2317,-0.0138,-0.6712,-0.7332
1772930400219.2317,-0.0118,-0.6734,-0.7344
1772930400219.2317,-0.0098,-0.6769,-0.731
1772930400234.8057,-0.0004,-0.6777,-0.729
1772930400234.8057,0.0039,-0.6765,-0.7282
1772930400234.8057,0.0083,-0.6714,-0.7223
1772930400234.8057,0.0093,-0.6676,-0.7206
1772930400234.8057,0.0089,-0.6642,-0.7243
1772930400249.4917,0.0064,-0.6621,-0.7186
1772930400249.4917,0.0136,-0.6575,-0.7214
1772930400249.4917,0.0032,-0.6571,-0.7357
1772930400249.4917,-0.0143,-0.6762,-0.6912
1772930400249.4917,-0.0024,-0.6783,-0.6908
1772930400249.4917,0.024,-0.6883,-0.6925
1772930400249.4917,0.0249,-0.6837,-0.6968
1772930400249.4917,0.0188,-0.6737,-0.7066
1772930400265.1125,0.0141,-0.6731,-0.7056
1772930400265.1125,0.0077,-0.6767,-0.697
1772930400265.1125,0.0021,-0.6818,-0.6908
1772930400265.1125,0.0017,-0.6859,-0.6881
1772930400265.1125,-0.0024,-0.6855,-0.6909
1772930400265.1125,-0.0079,-0.6843,-0.6906
1772930400265.1125,-0.0093,-0.6814,-0.6964
1772930400265.1125,-0.0106,-0.6785,-0.6958
1772930400281.1904,-0.017,-0.6758,-0.6995
1772930400281.1904,-0.0201,-0.6775,-0.7038
1772930400281.1904,-0.0219,-0.6772,-0.7049
1772930400281.1904,-0.0257,-0.6755,-0.7075
1772930400281.1904,-0.0266,-0.673,-0.7121
1772930400281.1904,-0.0267,-0.6722,-0.7146
1772930400281.1904,-0.0281,-0.6725,-0.7216
1772930400296.445,-0.0262,-0.6711,-0.7219
1772930400296.445,-0.0262,-0.6705,-0.7261
1772930400296.445,-0.0221,-0.6565,-0.7396
1772930400296.445,-0.0248,-0.6628,-0.7284
1772930400296.445,-0.0168,-0.6646,-0.7274
1772930400296.445,0.0279,-0.691,-0.7503
1772930400296.445,-0.0016,-0.6964,-0.7621
1772930400296.445,-0.0163,-0.6723,-0.7345
1772930400311.854,-0.0162,-0.6654,-0.7185
1772930400311.854,-0.0143,-0.6593,-0.7091
1772930400311.854,-0.0025,-0.6449,-0.7196
1772930400311.854,-0.0056,-0.6613,-0.7182
1772930400311.854,-0.0044,-0.6647,-0.7124
1772930400327.8398,-0.001,-0.6606,-0.7063
1772930400327.8398,0.0024,-0.6617,-0.7002
1772930400327.8398,0.0073,-0.6669,-0.7025
1772930400327.8398,0.0109,-0.6658,-0.7052
1772930400327.8398,0.0103,-0.6631,-0.7023
1772930400327.8398,0.0098,-0.6695,-0.7042
1772930400327.8398,0.0065,-0.6669,-0.7087
1772930400327.8398,0.0035,-0.6651,-0.7077
1772930400343.0356,-0.0016,-0.6696,-0.7096
1772930400343.0356,-0.0018,-0.6721,-0.7119
1772930400343.0356,-0.0024,-0.6728,-0.715
1772930400343.0356,-0.0028,-0.675,-0.7186
1772930400343.0356,-0.0022,-0.6772,-0.7135
1772930400343.0356,-0.003,-0.6745,-0.7213
1772930400343.0356,-0.0063,-0.6609,-0.7283
1772930400343.0356,-0.0148,-0.6626,-0.7114
1772930400357.939,-0.0156,-0.6693,-0.7091
1772930400357.939,-0.0109,-0.6698,-0.7155
1772930400357.939,-0.0112,-0.6706,-0.7163
1772930400357.939,-0.0093,-0.6695,-0.7184
1772930400357.939,-0.011,-0.6686,-0.7156
1772930400357.939,-0.0112,-0.6723,-0.7137
1772930400357.939,-0.0101,-0.6711,-0.7157
1772930400373.0742,-0.0091,-0.6712,-0.7149
1772930400373.0742,-0.0084,-0.6701,-0.7135
1772930400373.0742,-0.0107,-0.6654,-0.7154
1772930400373.0742,-0.0091,-0.6658,-0.7128
1772930400373.0742,-0.007,-0.6649,-0.7153
1772930400373.0742,-0.0071,-0.6688,-0.7153
1772930400387.7324,-0.0042,-0.6675,-0.7169
1772930400387.7324,-0.0049,-0.6688,-0.7147
1772930400387.7324,-0.0049,-0.6674,-0.7148
1772930400387.7324,-0.0048,-0.6654,-0.7119
1772930400387.7324,-0.0036,-0.6633,-0.7114
1772930400387.7324,-0.0087,-0.6645,-0.7158
1772930400387.7324,-0.0049,-0.662,-0.7144
1772930400402.4016,-0.0068,-0.6632,-0.7155
1772930400402.4016,-0.008,-0.661,-0.7132
1772930400402.4016,-0.008,-0.6597,-0.7151
1772930400402.4016,-0.008,-0.6638,-0.7137
1772930400402.4016,-0.0132,-0.6617,-0.7154
1772930400402.4016,-0.0116,-0.6631,-0.713
1772930400402.4016,-0.0123,-0.6642,-0.7146
1772930400402.4016,-0.0142,-0.6659,-0.7142
1772930400418.054,-0.0137,-0.6682,-0.7136
1772930400418.054,-0.0112,-0.667,-0.7139
1772930400418.054,-0.012,-0.6681,-0.7138
1772930400418.054,-0.0144,-0.6666,-0.7142
1772930400418.054,-0.0142,-0.6686,-0.713
1772930400434.0168,-0.0163,-0.6698,-0.7165
1772930400434.0168,-0.0146,-0.6669,-0.7154
1772930400434.0168,-0.0156,-0.6679,-0.7158
1772930400434.0168,-0.0158,-0.6684,-0.7152
1772930400434.0168,-0.0136,-0.6689,-0.7164
1772930400434.0168,-0.0126,-0.6675,-0.7162
1772930400434.0168,-0.0123,-0.6698,-0.712
1772930400434.0168,-0.0138,-0.67,-0.7118
1772930400449.6633,-0.0145,-0.6678,-0.7146
1772930400449.6633,-0.0135,-0.6675,-0.7147
1772930400449.6633,-0.0123,-0.6673,-0.7133
1772930400449.6633,-0.0124,-0.6679,-0.7164
1772930400449.6633,-0.0137,-0.6681,-0.7157
1772930400449.6633,-0.0121,-0.6639,-0.7187
1772930400449.6633,-0.0104,-0.6623,-0.7139
1772930400464.5508,-0.0103,-0.6634,-0.7161
1772930400464.5508,-0.0113,-0.6649,-0.7188
1772930400464.5508,-0.0136,-0.6659,-0.7182
1772930400464.5508,-0.0138,-0.6687,-0.7213
1772930400464.5508,-0.012,-0.6705,-0.7202
1772930400464.5508,-0.0086,-0.6668,-0.7246
1772930400464.5508,-0.0092,-0.6658,-0.7279
1772930400464.5508,-0.0087,-0.6626,-0.7274
1772930400479.6572,-0.0084,-0.6623,-0.7277
1772930400479.6572,-0.0076,-0.6638,-0.7291
1772930400479.6572,-0.0059,-0.6642,-0.7252
1772930400479.6572,-0.0032,-0.669,-0.7244
1772930400479.6572,-0.0033,-0.67,-0.7217
1772930400479.6572,-0.0013,-0.6732,-0.7206
1772930400479.6572,-0.0015,-0.6734,-0.7142
1772930400479.6572,0.0009,-0.6725,-0.7119
1772930400494.749,-0.0005,-0.6741,-0.7099
1772930400494.749,-0.0012,-0.6719,-0.7052
1772930400494.749,-0.0032,-0.6742,-0.7079
1772930400494.749,-0.004,-0.671,-0.7074
1772930400494.749,-0.004,-0.6731,-0.707
1772930400510.7422,-0.0101,-0.6716,-0.7096
1772930400510.7422,-0.0117,-0.674,-0.7127
1772930400510.7422,-0.0153,-0.6747,-0.7124
1772930400510.7422,-0.0149,-0.6725,-0.7124
1772930400510.7422,-0.0188,-0.6743,-0.7171
1772930400510.7422,-0.0225,-0.6767,-0.7181
1772930400510.7422,-0.0212,-0.6786,-0.718
1772930400510.7422,-0.0227,-0.6761,-0.7213
1772930400526.1414,-0.0231,-0.6747,-0.7241
1772930400526.1414,-0.0237,-0.6714,-0.7249
1772930400526.1414,-0.0229,-0.6722,-0.7285
1772930400526.1414,-0.0232,-0.6709,-0.7257
1772930400526.1414,-0.0207,-0.6691,-0.7282
1772930400526.1414,-0.0209,-0.6676,-0.7267
1772930400526.1414,-0.0145,-0.6664,-0.7273
1772930400542.1729,-0.0148,-0.6666,-0.726
1772930400542.1729,-0.0142,-0.6664,-0.7244
1772930400542.1729,-0.0127,-0.6671,-0.7233
1772930400542.1729,-0.0114,-0.6659,-0.7185
1772930400542.1729,-0.0098,-0.6681,-0.7175
1772930400542.1729,-0.0103,-0.6684,-0.7162
1772930400542.1729,-0.0059,-0.6705,-0.7157
1772930400542.1729,-0.0063,-0.6721,-0.7112
1772930400557.9915,-0.0045,-0.6692,-0.7108
1772930400557.9915,-0.003,-0.6701,-0.7095
1772930400557.9915,-0.0052,-0.6685,-0.7102
1772930400557.9915,-0.0041,-0.6683,-0.7105
1772930400557.9915,-0.0084,-0.6676,-0.7141
1772930400557.9915,-0.0063,-0.6663,-0.7134
1772930400557.9915,-0.0094,-0.6661,-0.7137
1772930400557.9915,-0.0081,-0.6664,-0.7144
1772930400574.1143,-0.011,-0.6686,-0.716
1772930400574.1143,-0.0101,-0.6654,-0.7185
1772930400574.1143,-0.0134,-0.6675,-0.7184
1772930400574.1143,-0.0099,-0.6629,-0.7174
1772930400574.1143,-0.0126,-0.6623,-0.719
1772930400574.1143,-0.0135,-0.6623,-0.7189
1772930400574.1143,-0.0128,-0.6623,-0.7195
1772930400589.796,-0.0156,-0.6603,-0.7219
1772930400589.796,-0.0134,-0.6559,-0.7212
1772930400589.796,-0.0146,-0.6579,-0.7188
1772930400589.796,-0.0147,-0.6589,-0.7202
1772930400589.796,-0.0124,-0.6607,-0.7203
1772930400605.1882,-0.0143,-0.6644,-0.7199
1772930400605.1882,-0.0157,-0.6653,-0.7216
1772930400605.1882,-0.0154,-0.6671,-0.7195
1772930400605.1882,-0.0115,-0.6693,-0.7185
1772930400605.1882,-0.0128,-0.6714,-0.7186
1772930400605.1882,-0.0123,-0.6861,-0.7175
1772930400605.1882,-0.0118,-0.6692,-0.715
1772930400605.1882,-0.011,-0.6701,-0.717
1772930400621.2397,-0.0081,-0.6673,-0.7155
1772930400621.2397,-0.007,-0.6671,-0.7135
1772930400621.2397,-0.0059,-0.6652,-0.713
1772930400621.2397,-0.0061,-0.6673,-0.7142
1772930400621.2397,-0.0091,-0.6654,-0.7109
1772930400621.2397,-0.0062,-0.6656,-0.7108
1772930400621.2397,-0.0075,-0.665,-0.7116
1772930400621.2397,-0.0063,-0.6637,-0.7128
1772930400637.0244,-0.0083,-0.6626,-0.714
1772930400637.0244,-0.0095,-0.6634,-0.7144
1772930400637.0244,-0.0125,-0.6602,-0.7151
1772930400637.0244,-0.0131,-0.6633,-0.7164
1772930400637.0244,-0.014,-0.6626,-0.7166
1772930400637.0244,-0.0123,-0.6588,-0.7201
1772930400637.0244,-0.0115,-0.6607,-0.7176
1772930400652.432,-0.0164,-0.6621,-0.7188
1772930400652.432,-0.0163,-0.6605,-0.7204
1772930400652.432,-0.0155,-0.6608,-0.7196
1772930400652.432,-0.0168,-0.6605,-0.722
1772930400652.432,-0.0152,-0.6627,-0.7211
1772930400652.432,-0.0137,-0.6619,-0.7202
1772930400652.432,-0.0138,-0.6609,-0.7213
1772930400652.432,-0.0134,-0.6629,-0.7185
1772930400667.7754,-0.012,-0.6601,-0.7203
1772930400667.7754,-0.0115,-0.66,-0.7182
1772930400667.7754,-0.0102,-0.661,-0.7199
1772930400667.7754,-0.009,-0.6628,-0.7175
1772930400667.7754,-0.0113,-0.6606,-0.7192
1772930400683.3665,-0.0076,-0.6605,-0.717
1772930400683.3665,-0.0102,-0.6615,-0.7169
1772930400683.3665,-0.009,-0.6641,-0.7132
1772930400683.3665,-0.0099,-0.6619,-0.7154
1772930400683.3665,-0.0112,-0.6588,-0.7105
1772930400683.3665,-0.0106,-0.6617,-0.7124
1772930400683.3665,-0.0089,-0.6593,-0.7117
1772930400683.3665,-0.0097,-0.6599,-0.7098
1772930400699.5684,-0.0061,-0.6611,-0.7107
1772930400699.5684,-0.0053,-0.6649,-0.7114
1772930400699.5684,-0.005,-0.6664,-0.7082
1772930400699.5684,-0.0045,-0.6664,-0.7109
1772930400699.5684,-0.0057,-0.6679,-0.7124
1772930400699.5684,-0.0068,-0.6661,-0.7146
1772930400699.5684,-0.0068,-0.6687,-0.7171
1772930400699.5684,-0.007,-0.667,-0.7157
1772930400714.9045,-0.0089,-0.6634,-0.7186
1772930400714.9045,-0.0105,-0.6652,-0.7196
1772930400714.9045,-0.009,-0.6684,-0.7202
1772930400714.9045,-0.0108,-0.6675,-0.7203
1772930400714.9045,-0.013,-0.6689,-0.7202
1772930400714.9045,-0.009,-0.6702,-0.7235
1772930400714.9045,-0.0093,-0.67,-0.7239
1772930400730.7703,-0.0084,-0.6712,-0.7263
1772930400730.7703,-0.0115,-0.6721,-0.7249
1772930400730.7703,-0.0113,-0.6708,-0.725
1772930400730.7703,-0.0129,-0.6684,-0.7277
1772930400730.7703,-0.0122,-0.6834,-0.7239
1772930400730.7703,-0.0145,-0.6692,-0.7242
1772930400730.7703,-0.0144,-0.669,-0.725
1772930400730.7703,-0.0116,-0.6655,-0.726
1772930400746.3691,-0.0101,-0.667,-0.7264
1772930400746.3691,-0.0099,-0.666,-0.7243
1772930400746.3691,-0.011,-0.6663,-0.725
1772930400746.3691,-0.0102,-0.6668,-0.724
1772930400746.3691,-0.0108,-0.668,-0.7222
1772930400746.3691,-0.0115,-0.6681,-0.7228
1772930400746.3691,-0.0123,-0.6689,-0.7227
1772930400746.3691,-0.0123,-0.6697,-0.7216
1772930400761.95,-0.0126,-0.6699,-0.7203
1772930400761.95,-0.0129,-0.6698,-0.7209
1772930400761.95,-0.0135,-0.6704,-0.7225
1772930400761.95,-0.0116,-0.6697,-0.7199
1772930400761.95,-0.0157,-0.6707,-0.7219
1772930400777.845,-0.0165,-0.6709,-0.7222
1772930400777.845,-0.0146,-0.6715,-0.7242
1772930400777.845,-0.0167,-0.6701,-0.7213
1772930400777.845,-0.0137,-0.6677,-0.7225
1772930400777.845,-0.0154,-0.6675,-0.7205
1772930400777.845,-0.0139,-0.669,-0.7175
1772930400777.845,-0.0124,-0.6708,-0.7221
1772930400793.8843,-0.0136,-0.6676,-0.7184
1772930400793.8843,-0.0125,-0.6682,-0.7175
1772930400793.8843,-0.0126,-0.6672,-0.7192
1772930400793.8843,-0.0118,-0.67,-0.7171
1772930400793.8843,-0.014,-0.6665,-0.7158
1772930400793.8843,-0.0124,-0.6656,-0.7175
1772930400793.8843,-0.0126,-0.6658,-0.7147
1772930400793.8843,-0.0147,-0.6642,-0.7163
1772930400809.528,-0.0129,-0.6659,-0.7165
1772930400809.528,-0.0139,-0.6664,-0.7186
1772930400809.528,-0.0103,-0.6654,-0.7165
1772930400809.528,-0.0149,-0.6623,-0.7142
1772930400809.528,-0.0132,-0.6639,-0.7134
1772930400809.528,-0.0111,-0.6636,-0.7139
1772930400809.528,-0.0106,-0.6654,-0.7147
1772930400809.528,-0.0134,-0.6623,-0.7135
1772930400825.17,-0.0087,-0.6608,-0.7136
1772930400825.17,-0.0084,-0.662,-0.7164
1772930400825.17,-0.0105,-0.6626,-0.7157
1772930400825.17,-0.0097,-0.6605,-0.7155
1772930400825.17,-0.0123,-0.6586,-0.7167
1772930400825.17,-0.0131,-0.6588,-0.7166
1772930400825.17,-0.0126,-0.6605,-0.716
1772930400841.2234,-0.0108,-0.6573,-0.7172
1772930400841.2234,-0.0129,-0.6558,-0.713
1772930400841.2234,-0.0115,-0.6558,-0.7146
1772930400841.2234,-0.0101,-0.6567,-0.7172
1772930400841.2234,-0.0098,-0.6553,-0.7146
1772930400841.2234,-0.0115,-0.6592,-0.7155
1772930400841.2234,-0.0103,-0.6611,-0.7213
1772930400841.2234,-0.012,-0.6622,-0.732
1772930400857.103,-0.0133,-0.6612,-0.7192
1772930400857.103,-0.0126,-0.664,-0.7187
1772930400857.103,-0.0124,-0.6662,-0.7199
1772930400857.103,-0.0145,-0.6623,-0.7242
1772930400857.103,-0.0122,-0.6617,-0.7214
1772930400873.173,-0.0145,-0.6603,-0.7236
1772930400873.173,-0.0157,-0.6625,-0.7239
1772930400873.173,-0.0142,-0.6614,-0.72
1772930400873.173,-0.0143,-0.6629,-0.7214
1772930400873.173,-0.0123,-0.665,-0.7238
1772930400873.173,-0.009,-0.664,-0.722
1772930400873.173,-0.0095,-0.665,-0.7223
1772930400873.173,-0.0099,-0.6669,-0.7211
1772930400888.7395,-0.0083,-0.6671,-0.7238
1772930400888.7395,-0.0084,-0.6698,-0.7224
1772930400888.7395,-0.0114,-0.6671,-0.7239
1772930400888.7395,-0.0117,-0.6691,-0.7205
1772930400888.7395,-0.0125,-0.6674,-0.721
1772930400888.7395,-0.0138,-0.6695,-0.7217
1772930400888.7395,-0.0106,-0.6701,-0.7185
1772930400888.7395,-0.0129,-0.6683,-0.7203
1772930400904.7964,-0.0127,-0.6705,-0.7216
1772930400904.7964,-0.0144,-0.6701,-0.721
1772930400904.7964,-0.0147,-0.6695,-0.7191
1772930400904.7964,-0.0159,-0.6719,-0.7191
1772930400904.7964,-0.0148,-0.6713,-0.7199
1772930400904.7964,-0.0178,-0.6701,-0.7212
1772930400904.7964,-0.0159,-0.6678,-0.7193
1772930400919.8608,-0.016,-0.6691,-0.7189
1772930400919.8608,-0.0141,-0.6664,-0.719
1772930400919.8608,-0.0162,-0.6667,-0.7178
1772930400919.8608,-0.0149,-0.6656,-0.7185
1772930400919.8608,-0.0001,-0.6634,-0.7167
1772930400919.8608,-0.0118,-0.665,-0.7182
1772930400919.8608,-0.0117,-0.6619,-0.7158
1772930400919.8608,-0.0081,-0.6634,-0.7114
1772930400935.825,-0.0112,-0.6644,-0.7114
1772930400935.825,-0.0089,-0.6635,-0.71
1772930400935.825,-0.0081,-0.6647,-0.7121
1772930400935.825,-0.0094,-0.663,-0.7132
1772930400935.825,-0.0084,-0.6619,-0.7127
1772930400935.825,-0.0094,-0.6633,-0.7131
1772930400935.825,-0.0107,-0.6623,-0.7137
1772930400935.825,-0.0088,-0.6636,-0.7149
1772930400951.0344,-0.0129,-0.6603,-0.7176
1772930400951.0344,-0.0124,-0.6612,-0.7176
1772930400951.0344,-0.0131,-0.6608,-0.7199
1772930400951.0344,-0.0141,-0.659,-0.7184
1772930400951.0344,-0.0142,-0.6608,-0.7206
1772930400966.5957,-0.015,-0.6616,-0.7202
1772930400966.5957,-0.0148,-0.6643,-0.7175
1772930400966.5957,-0.0118,-0.6654,-0.718
1772930400966.5957,-0.0124,-0.6671,-0.7171
1772930400966.5957,-0.0089,-0.6694,-0.7182
1772930400966.5957,-0.009,-0.6697,-0.7142
1772930400966.5957,-0.0099,-0.6708,-0.7144
1772930400982.182,-0.0071,-0.6727,-0.7141
1772930400982.182,-0.0099,-0.6738,-0.7096
1772930400982.182,-0.0074,-0.6727,-0.7087
1772930400982.182,-0.0092,-0.6778,-0.7061
1772930400982.182,-0.0103,-0.6787,-0.6974
1772930400982.182,-0.01,-0.6776,-0.7016
1772930400982.182,-0.0123,-0.6772,-0.7003
1772930400982.182,-0.0128,-0.6739,-0.7019
1772930400997.7266,-0.0199,-0.6675,-0.7067
1772930400997.7266,-0.0252,-0.6654,-0.7119
1772930400997.7266,-0.0249,-0.6615,-0.7169
1772930400997.7266,-0.0267,-0.6581,-0.7182
1772930400997.7266,-0.0273,-0.6555,-0.7288
1772930400997.7266,-0.0305,-0.6554,-0.7357
1772930400997.7266,-0.0286,-0.6549,-0.7408
1772930400997.7266,-0.0297,-0.6575,-0.7401
1772930401013.8574,-0.0278,-0.6595,-0.7444
1772930401013.8574,-0.0265,-0.6608,-0.7418
1772930401013.8574,-0.0256,-0.6676,-0.7388
1772930401013.8574,-0.0173,-0.6686,-0.7341
1772930401013.8574,-0.0059,-0.6697,-0.7311
1772930401013.8574,0.0007,-0.6709,-0.7274
1772930401013.8574,0.0068,-0.6661,-0.7288
1772930401013.8574,0.0094,-0.6604,-0.7268
1772930401028.823,0.0069,-0.6551,-0.7255
1772930401028.823,0.006,-0.6539,-0.7252
1772930401028.823,0.0013,-0.6486,-0.7242
1772930401028.823,-0.0019,-0.6485,-0.7229
1772930401028.823,-0.0024,-0.6528,-0.7188
1772930401044.009,-0.0015,-0.6534,-0.7169
1772930401044.009,0.0029,-0.6611,-0.7126
1772930401044.009,0.0037,-0.6633,-0.7075
1772930401044.009,0.0034,-0.667,-0.7065
1772930401044.009,0.0036,-0.6658,-0.7048
1772930401044.009,0.0009,-0.6672,-0.7013
1772930401044.009,-0.0149,-0.67,-0.6958
1772930401044.009,-0.005,-0.6699,-0.6952
1772930401059.8474,-0.009,-0.6712,-0.6977
1772930401059.8474,-0.0123,-0.6734,-0.7008
1772930401059.8474,-0.0157,-0.6759,-0.7025
1772930401059.8474,-0.0197,-0.6724,-0.7027
1772930401059.8474,-0.0231,-0.673,-0.7059
1772930401059.8474,-0.0315,-0.6737,-0.7094
1772930401059.8474,-0.0343,-0.6704,-0.7149
1772930401075.0652,-0.0353,-0.6659,-0.7153
1772930401075.0652,-0.0366,-0.6639,-0.7164
1772930401075.0652,-0.0393,-0.6626,-0.7196
1772930401075.0652,-0.04,-0.6598,-0.7317
1772930401075.0652,-0.0423,-0.6616,-0.7342
1772930401075.0652,-0.038,-0.661,-0.7338
1772930401075.0652,-0.0361,-0.6587,-0.7424
1772930401075.0652,-0.0332,-0.6604,-0.7397
1772930401089.7837,-0.0347,-0.6581,-0.7378
1772930401089.7837,-0.029,-0.6601,-0.7363
1772930401089.7837,-0.0234,-0.6615,-0.7376
1772930401089.7837,-0.0164,-0.6617,-0.737
1772930401089.7837,-0.0156,-0.664,-0.7346
1772930401104.7493,-0.0091,-0.6627,-0.7339
1772930401104.7493,-0.0057,-0.6617,-0.729
1772930401104.7493,-0.0014,-0.6601,-0.7289
1772930401104.7493,-0.0017,-0.6597,-0.7245
1772930401104.7493,0.0013,-0.6603,-0.7236
1772930401104.7493,0.0045,-0.6609,-0.7229
1772930401104.7493,0.0024,-0.659,-0.7229
1772930401104.7493,0.003,-0.6609,-0.7242
1772930401120.0396,0.0013,-0.6615,-0.7255
1772930401120.0396,-0.0018,-0.6625,-0.7227
1772930401120.0396,-0.0001,-0.6634,-0.7249
1772930401120.0396,-0.003,-0.6649,-0.7253
1772930401120.0396,-0.0042,-0.6675,-0.7241
1772930401120.0396,-0.0079,-0.6682,-0.7274
1772930401120.0396,-0.0075,-0.6705,-0.7278
1772930401120.0396,-0.0079,-0.6728,-0.7288
1772930401135.6248,-0.0102,-0.674,-0.726
1772930401135.6248,-0.0128,-0.6737,-0.7299
1772930401135.6248,-0.0145,-0.6746,-0.7282
1772930401135.6248,-0.0124,-0.6727,-0.73
1772930401135.6248,-0.0164,-0.6747,-0.7282
1772930401135.6248,-0.0157,-0.6744,-0.7276
1772930401135.6248,-0.0158,-0.6744,-0.7259
1772930401150.901,-0.0163,-0.6733,-0.7243
1772930401150.901,-0.0177,-0.6699,-0.7235
1772930401150.901,-0.0167,-0.6689,-0.7239
1772930401150.901,-0.017,-0.665,-0.7243
1772930401150.901,-0.0148,-0.6647,-0.7218
1772930401150.901,-0.0166,-0.6623,-0.7225
1772930401166.657,-0.0173,-0.6626,-0.7225
1772930401166.657,-0.0148,-0.6597,-0.721
1772930401166.657,-0.0135,-0.6586,-0.7215
1772930401166.657,-0.0127,-0.6559,-0.7191
1772930401166.657,-0.0118,-0.6578,-0.7182
1772930401166.657,-0.0158,-0.6565,-0.7204
1772930401166.657,-0.0128,-0.6558,-0.7189
1772930401181.7637,-0.0161,-0.655,-0.7182
1772930401181.7637,-0.0159,-0.6545,-0.7199
1772930401181.7637,-0.0138,-0.6519,-0.7202
1772930401181.7637,-0.0161,-0.654,-0.7202
1772930401181.7637,-0.0177,-0.654,-0.7164
1772930401181.7637,-0.0187,-0.6521,-0.7188
1772930401181.7637,-0.0181,-0.6487,-0.7188
1772930401181.7637,-0.0144,-0.6504,-0.7177
1772930401197.8289,-0.0176,-0.6476,-0.7207
1772930401197.8289,-0.0179,-0.6473,-0.7204
1772930401197.8289,-0.0165,-0.6477,-0.7167
1772930401197.8289,-0.0178,-0.6486,-0.7169
1772930401197.8289,-0.0185,-0.6477,-0.7182
1772930401197.8289,-0.018,-0.649,-0.7191
1772930401197.8289,-0.0175,-0.6501,-0.716
1772930401197.8289,-0.0176,-0.6503,-0.7173
1772930401213.149,-0.0187,-0.6504,-0.7168
1772930401213.149,-0.017,-0.6512,-0.7165
1772930401213.149,-0.018,-0.652,-0.7182
1772930401213.149,-0.0196,-0.6545,-0.7146
1772930401213.149,-0.0184,-0.6542,-0.7177
1772930401213.149,-0.017,-0.6546,-0.7152
1772930401213.149,-0.0148,-0.6545,-0.7143
1772930401229.2107,-0.0151,-0.6548,-0.7139
1772930401229.2107,-0.0137,-0.6543,-0.7157
1772930401229.2107,-0.0132,-0.6556,-0.7163
1772930401229.2107,-0.0121,-0.6559,-0.7169
1772930401229.2107,-0.012,-0.6584,-0.715
1772930401244.3425,-0.0133,-0.6601,-0.716
1772930401244.3425,-0.0134,-0.6618,-0.7171
1772930401244.3425,-0.0124,-0.664,-0.7175
1772930401244.3425,-0.0138,-0.6623,-0.7182
1772930401244.3425,-0.0152,-0.6636,-0.718
1772930401244.3425,-0.016,-0.6613,-0.7226
1772930401244.3425,-0.0168,-0.6621,-0.7249
1772930401244.3425,-0.0194,-0.6633,-0.727
1772930401260.0234,-0.0213,-0.6651,-0.7311
1772930401260.0234,-0.022,-0.6677,-0.7297
1772930401260.0234,-0.0174,-0.6697,-0.727
1772930401260.0234,-0.0133,-0.6648,-0.7311
1772930401260.0234,-0.0107,-0.661,-0.7366
1772930401260.0234,-0.0136,-0.6601,-0.7372
1772930401260.0234,-0.0101,-0.6569,-0.7394
1772930401260.0234,-0.0102,-0.6565,-0.737
1772930401275.1006,-0.0121,-0.6602,-0.7393
1772930401275.1006,-0.0119,-0.6609,-0.7346
1772930401275.1006,-0.0103,-0.6681,-0.7313
1772930401275.1006,-0.008,-0.6684,-0.7261
1772930401275.1006,-0.0086,-0.6682,-0.7234
1772930401275.1006,-0.0048,-0.6678,-0.722
1772930401275.1006,-0.004,-0.666,-0.7193
1772930401290.7664,-0.0037,-0.6645,-0.7146
1772930401290.7664,-0.0056,-0.6646,-0.7161
1772930401290.7664,-0.0079,-0.6644,-0.7186
1772930401290.7664,-0.01,-0.662,-0.7196
1772930401290.7664,-0.0163,-0.6608,-0.7172
1772930401290.7664,-0.0184,-0.6628,-0.72
1772930401290.7664,-0.0182,-0.6603,-0.7184
1772930401290.7664,-0.023,-0.6612,-0.723
1772930401306.8582,-0.0218,-0.6633,-0.7243
1772930401306.8582,-0.0217,-0.662,-0.7242
1772930401306.8582,-0.0195,-0.6637,-0.7277
1772930401306.8582,-0.0199,-0.6626,-0.7294
1772930401306.8582,-0.0227,-0.6641,-0.7286
1772930401322.9963,-0.0215,-0.6611,-0.7292
1772930401322.9963,-0.0221,-0.6639,-0.7297
1772930401322.9963,-0.0204,-0.6634,-0.7293
1772930401322.9963,-0.0197,-0.6636,-0.734
1772930401322.9963,-0.0191,-0.6598,-0.7327
1772930401322.9963,-0.0193,-0.6593,-0.7333
1772930401322.9963,-0.018,-0.6578,-0.7307
1772930401322.9963,-0.0156,-0.6612,-0.728
1772930401338.72,-0.0149,-0.6599,-0.7249
1772930401338.72,-0.0118,-0.6636,-0.7242
1772930401338.72,-0.0114,-0.6626,-0.7208
1772930401338.72,-0.0077,-0.6636,-0.7196
1772930401338.72,-0.0083,-0.6613,-0.718
1772930401338.72,-0.0094,-0.6603,-0.7196
1772930401338.72,-0.0068,-0.6609,-0.7188
1772930401338.72,-0.0065,-0.6595,-0.7174
1772930401354.498,-0.0084,-0.6588,-0.7182
1772930401354.498,-0.0064,-0.6615,-0.721
1772930401354.498,-0.0053,-0.6656,-0.7244
1772930401354.498,-0.005,-0.6642,-0.7224
1772930401354.498,-0.0057,-0.6661,-0.7224
1772930401354.498,-0.0083,-0.6628,-0.7263
1772930401354.498,-0.007,-0.6639,-0.728
1772930401370.067,-0.0067,-0.6592,-0.7248
1772930401370.067,-0.008,-0.6557,-0.7271
1772930401370.067,-0.012,-0.6551,-0.7266
1772930401370.067,-0.0109,-0.6579,-0.7293
1772930401370.067,-0.0154,-0.6645,-0.7266
1772930401370.067,-0.0185,-0.6682,-0.7296
1772930401370.067,-0.0187,-0.6685,-0.7299
1772930401370.067,-0.0213,-0.6684,-0.7305
1772930401385.9304,-0.0185,-0.667,-0.7268
1772930401385.9304,-0.0186,-0.6654,-0.7285
1772930401385.9304,-0.0182,-0.6659,-0.7277
1772930401385.9304,-0.0169,-0.666,-0.7266
1772930401385.9304,-0.0176,-0.6647,-0.7266
1772930401385.9304,-0.0167,-0.6629,-0.7232
1772930401385.9304,-0.0152,-0.6644,-0.7239
1772930401385.9304,-0.0147,-0.6631,-0.7182
1772930401401.8872,-0.015,-0.6613,-0.7205
1772930401401.8872,-0.0142,-0.6601,-0.7199
1772930401401.8872,-0.0139,-0.659,-0.7247
1772930401401.8872,-0.0126,-0.659,-0.7203
1772930401401.8872,-0.0123,-0.6577,-0.7203
1772930401401.8872,-0.0122,-0.6569,-0.7207
1772930401401.8872,-0.0109,-0.6555,-0.7197
1772930401417.8362,-0.0108,-0.6578,-0.7199
1772930401417.8362,-0.0124,-0.6586,-0.7188
1772930401417.8362,-0.0128,-0.6599,-0.7218
1772930401417.8362,-0.0122,-0.662,-0.7204
1772930401417.8362,-0.0119,-0.6636,-0.7197
1772930401433.0752,-0.0115,-0.6605,-0.7188
1772930401433.0752,-0.0126,-0.6606,-0.7222
1772930401433.0752,-0.0126,-0.6599,-0.7208
1772930401433.0752,-0.0109,-0.6615,-0.7194
1772930401433.0752,-0.0123,-0.661,-0.7217
1772930401433.0752,-0.0162,-0.661,-0.7225
1772930401433.0752,-0.0156,-0.6625,-0.7259
1772930401433.0752,-0.0156,-0.6628,-0.725
1772930401449.6409,-0.0139,-0.6638,-0.7235
1772930401449.6409,-0.0172,-0.6636,-0.7251
1772930401449.6409,-0.0138,-0.6631,-0.7246
1772930401449.6409,-0.0149,-0.6626,-0.7227
1772930401449.6409,-0.0148,-0.6632,-0.726
1772930401449.6409,-0.0157,-0.6615,-0.7208
1772930401449.6409,-0.0123,-0.6612,-0.7241
1772930401449.6409,-0.0095,-0.6596,-0.7233
1772930401465.434,-0.0121,-0.659,-0.7218
1772930401465.434,-0.008,-0.6579,-0.7204
1772930401465.434,-0.0107,-0.6603,-0.7196
1772930401465.434,-0.0093,-0.6573,-0.7201
1772930401465.434,-0.0119,-0.6579,-0.7184
1772930401465.434,-0.0126,-0.6561,-0.7205
1772930401465.434,-0.0099,-0.6576,-0.7181
1772930401465.434,-0.0107,-0.6604,-0.7191
1772930401481.052,-0.0124,-0.6587,-0.7186
1772930401481.052,-0.011,-0.6603,-0.7205
1772930401481.052,-0.0112,-0.6607,-0.72
1772930401481.052,-0.0129,-0.6597,-0.7246
1772930401481.052,-0.0135,-0.6621,-0.7208
1772930401481.052,-0.0125,-0.664,-0.7219
1772930401481.052,-0.0159,-0.6644,-0.7203
1772930401496.7166,-0.0124,-0.6644,-0.7215
1772930401496.7166,-0.0142,-0.6646,-0.7207
1772930401496.7166,-0.0131,-0.6647,-0.7236
1772930401496.7166,-0.0159,-0.6651,-0.7235
1772930401496.7166,-0.0131,-0.6622,-0.7242
1772930401496.7166,-0.016,-0.6624,-0.7222
1772930401496.7166,-0.0148,-0.6612,-0.7227
1772930401496.7166,-0.0157,-0.661,-0.7228
1772930401512.7937,-0.018,-0.6608,-0.7233
1772930401512.7937,-0.0144,-0.6619,-0.7212
1772930401512.7937,-0.0156,-0.6624,-0.722
1772930401512.7937,-0.0162,-0.6615,-0.7233
1772930401512.7937,-0.0151,-0.6633,-0.7254
1772930401512.7937,-0.0146,-0.664,-0.7225
1772930401512.7937,-0.0144,-0.6662,-0.7235
1772930401512.7937,-0.0157,-0.664,-0.7222
1772930401529.2144,-0.0171,-0.669,-0.7231
1772930401529.2144,-0.0171,-0.6658,-0.7241
1772930401529.2144,-0.019,-0.6652,-0.7261
1772930401529.2144,-0.0176,-0.6666,-0.7231
1772930401529.2144,-0.0204,-0.6664,-0.7257
1772930401544.913,-0.0161,-0.6669,-0.725
1772930401544.913,-0.0154,-0.6686,-0.7233
1772930401544.913,-0.0159,-0.6694,-0.7229
1772930401544.913,-0.0152,-0.6692,-0.725
1772930401544.913,-0.0172,-0.6714,-0.7211
1772930401544.913,-0.0182,-0.6676,-0.7185
1772930401544.913,-0.0181,-0.6687,-0.7227
1772930401560.073,-0.0157,-0.6645,-0.7215
1772930401560.073,-0.0152,-0.6646,-0.722
1772930401560.073,-0.0145,-0.6651,-0.7209
1772930401560.073,-0.0183,-0.6622,-0.7178
1772930401560.073,-0.016,-0.6602,-0.7198
1772930401560.073,-0.0157,-0.6622,-0.7213
1772930401560.073,-0.0198,-0.6592,-0.7177
1772930401560.073,-0.0147,-0.6581,-0.7212
1772930401575.2053,-0.017,-0.6578,-0.7168
1772930401575.2053,-0.0152,-0.6546,-0.7166
1772930401575.2053,-0.0152,-0.6568,-0.717
1772930401575.2053,-0.0168,-0.6578,-0.7186
1772930401575.2053,-0.0145,-0.6561,-0.718
1772930401575.2053,-0.0135,-0.6561,-0.718
1772930401575.2053,-0.0153,-0.6545,-0.7172
1772930401575.2053,-0.0157,-0.656,-0.7193
1772930401591.0496,-0.0146,-0.655,-0.7171
1772930401591.0496,-0.0149,-0.6591,-0.7193
1772930401591.0496,-0.0148,-0.6571,-0.7182
1772930401591.0496,-0.0152,-0.6576,-0.7192
1772930401591.0496,-0.016,-0.657,-0.7232
1772930401591.0496,-0.0156,-0.6587,-0.7185
1772930401591.0496,-0.0149,-0.6597,-0.7189
1772930401606.9907,-0.0158,-0.6614,-0.716
1772930401606.9907,-0.0145,-0.6605,-0.7188
1772930401606.9907,-0.0148,-0.6631,-0.7174
1772930401606.9907,-0.0167,-0.6623,-0.7138
1772930401606.9907,-0.0148,-0.6633,-0.718
1772930401606.9907,-0.0174,-0.6652,-0.7198
1772930401623.1912,-0.0192,-0.6656,-0.72
1772930401623.1912,-0.0172,-0.6643,-0.7174
1772930401623.1912,-0.0193,-0.6622,-0.7182
1772930401623.1912,-0.0162,-0.664,-0.7174
1772930401623.1912,-0.0159,-0.6616,-0.7167
1772930401623.1912,-0.015,-0.6619,-0.7202
1772930401623.1912,-0.0139,-0.6622,-0.7155
1772930401638.7937,-0.0145,-0.6637,-0.7182
1772930401638.7937,-0.0137,-0.662,-0.7196
1772930401638.7937,-0.0126,-0.6616,-0.7155
1772930401638.7937,-0.013,-0.6616,-0.7164
1772930401638.7937,-0.0103,-0.6646,-0.7169
1772930401638.7937,-0.01,-0.664,-0.7157
1772930401638.7937,-0.0104,-0.6649,-0.7185
1772930401638.7937,-0.0111,-0.6628,-0.7145
1772930401654.4153,-0.0112,-0.6644,-0.7152
1772930401654.4153,-0.0103,-0.6673,-0.718
1772930401654.4153,-0.0127,-0.666,-0.719
1772930401654.4153,-0.0144,-0.6671,-0.7194
1772930401654.4153,-0.015,-0.6674,-0.7189
1772930401654.4153,-0.0117,-0.6663,-0.7202
1772930401654.4153,-0.0154,-0.6681,-0.7197
1772930401654.4153,-0.0146,-0.667,-0.7209
1772930401669.6726,-0.016,-0.6686,-0.72
1772930401669.6726,-0.0167,-0.6653,-0.7189
1772930401669.6726,-0.0177,-0.667,-0.7188
1772930401669.6726,-0.0165,-0.6686,-0.7179
1772930401669.6726,-0.0154,-0.6672,-0.7227
1772930401669.6726,-0.0147,-0.6681,-0.7214
1772930401669.6726,-0.0165,-0.6665,-0.7175
1772930401684.757,-0.015,-0.667,-0.72
1772930401684.757,-0.0176,-0.6647,-0.718
1772930401684.757,-0.0143,-0.6636,-0.7164
1772930401684.757,-0.0146,-0.6622,-0.714
1772930401684.757,-0.0139,-0.6625,-0.7163
1772930401700.8374,-0.017,-0.6621,-0.7165
1772930401700.8374,-0.0176,-0.6606,-0.7189
1772930401700.8374,-0.0169,-0.6617,-0.7184
1772930401700.8374,-0.0151,-0.66,-0.7162
1772930401700.8374,-0.017,-0.6576,-0.7192
1772930401700.8374,-0.0172,-0.6584,-0.7186
1772930401700.8374,-0.0174,-0.6598,-0.7193
1772930401700.8374,-0.017,-0.6581,-0.7218
1772930401716.3186,-0.0179,-0.6617,-0.7192
1772930401716.3186,-0.0181,-0.6606,-0.7209
1772930401716.3186,-0.0179,-0.6608,-0.7207
1772930401716.3186,-0.0161,-0.6623,-0.7202
1772930401716.3186,-0.0169,-0.6659,-0.7186
1772930401716.3186,-0.0128,-0.6648,-0.7183
1772930401716.3186,-0.0134,-0.6673,-0.7181
1772930401716.3186,-0.0098,-0.6703,-0.7175
1772930401731.379,-0.0107,-0.6719,-0.716
1772930401731.379,-0.0055,-0.669,-0.7157
1772930401731.379,-0.0062,-0.6726,-0.7137
1772930401731.379,-0.0065,-0.6761,-0.708
1772930401731.379,-0.0059,-0.68,-0.6987
1772930401731.379,-0.0053,-0.6802,-0.6977
1772930401731.379,-0.0037,-0.6812,-0.7002
1772930401746.527,-0.0073,-0.6776,-0.7022
1772930401746.527,-0.0117,-0.6713,-0.7045
1772930401746.527,-0.0165,-0.6662,-0.708
1772930401746.527,-0.0181,-0.6589,-0.7122
1772930401746.527,-0.02,-0.6584,-0.7165
1772930401746.527,-0.022,-0.656,-0.7225
1772930401746.527,-0.0248,-0.6543,-0.7288
1772930401746.527,-0.0268,-0.6536,-0.7343
1772930401762.1108,-0.0285,-0.6525,-0.7383
1772930401762.1108,-0.0306,-0.6554,-0.741
1772930401762.1108,-0.0281,-0.6622,-0.7426
1772930401762.1108,-0.0267,-0.6671,-0.7422
1772930401762.1108,-0.0215,-0.6709,-0.7383
1772930401777.8823,-0.0143,-0.6738,-0.7363
1772930401777.8823,-0.0038,-0.674,-0.7307
1772930401777.8823,0.0054,-0.6734,-0.7292
1772930401777.8823,0.0064,-0.6712,-0.7322
1772930401777.8823,0.0086,-0.6607,-0.7263
1772930401777.8823,0.0091,-0.6532,-0.7277
1772930401777.8823,0.002,-0.6499,-0.7282
1772930401777.8823,-0.0016,-0.6461,-0.7247
1772930401793.423,-0.0029,-0.6494,-0.7222
1772930401793.423,0.0015,-0.6542,-0.7152
1772930401793.423,0.0014,-0.6587,-0.7144
1772930401793.423,0.0073,-0.665,-0.7112
1772930401793.423,0.0088,-0.6675,-0.7034
1772930401793.423,0.0063,-0.6711,-0.7037
1772930401793.423,0.0051,-0.6712,-0.6994
1772930401793.423,-0.0013,-0.67,-0.6967
1772930401808.577,-0.0034,-0.6712,-0.6967
1772930401808.577,-0.011,-0.67,-0.6955
1772930401808.577,-0.0138,-0.6717,-0.6983
1772930401808.577,-0.0207,-0.6684,-0.6988
1772930401808.577,-0.0232,-0.6693,-0.7033
1772930401808.577,-0.0251,-0.6686,-0.7046
1772930401808.577,-0.0302,-0.6666,-0.7063
1772930401808.577,-0.0339,-0.6664,-0.7106
1772930401824.2527,-0.0351,-0.6644,-0.716
1772930401824.2527,-0.0359,-0.6644,-0.7126
1772930401824.2527,-0.0375,-0.663,-0.7176
1772930401824.2527,-0.0336,-0.6604,-0.7248
1772930401824.2527,-0.0334,-0.6601,-0.7279
1772930401824.2527,-0.0334,-0.6579,-0.7299
1772930401824.2527,-0.032,-0.6615,-0.7323
1772930401839.4812,-0.0325,-0.6592,-0.7363
1772930401839.4812,-0.0309,-0.6596,-0.7385
1772930401839.4812,-0.0279,-0.6588,-0.7397
1772930401839.4812,-0.0245,-0.6629,-0.737
1772930401839.4812,-0.0212,-0.6619,-0.7352
1772930401855.0588,-0.0118,-0.6617,-0.7322
1772930401855.0588,-0.0076,-0.6644,-0.7279
1772930401855.0588,-0.0031,-0.6652,-0.7275
1772930401855.0588,-0.0003,-0.6633,-0.7226
1772930401855.0588,0.0044,-0.6679,-0.7238
1772930401855.0588,0.0014,-0.6688,-0.7232
1772930401855.0588,0.0045,-0.6677,-0.7186
1772930401855.0588,0.0059,-0.67,-0.7205
1772930401870.1155,0.0077,-0.67,-0.7205
1772930401870.1155,0.0038,-0.6705,-0.7219
1772930401870.1155,0.0055,-0.6734,-0.7227
1772930401870.1155,-0.0015,-0.6723,-0.7272
1772930401870.1155,-0.0024,-0.6744,-0.7238
1772930401870.1155,-0.0035,-0.6735,-0.7277
1772930401870.1155,-0.0081,-0.673,-0.7273
1772930401870.1155,-0.0074,-0.6751,-0.7278
1772930401886.0742,-0.0105,-0.6748,-0.7271
1772930401886.0742,-0.0135,-0.6747,-0.7272
1772930401886.0742,-0.0154,-0.6747,-0.7249
1772930401886.0742,-0.015,-0.6758,-0.7279
1772930401886.0742,-0.0161,-0.6746,-0.7264
1772930401886.0742,-0.0168,-0.6732,-0.7239
1772930401886.0742,-0.0178,-0.6703,-0.7235
1772930401886.0742,-0.0196,-0.6719,-0.7223
1772930401901.5388,-0.0179,-0.669,-0.7219
1772930401901.5388,-0.0215,-0.6731,-0.7194
1772930401901.5388,-0.0202,-0.6676,-0.7193
1772930401901.5388,-0.0212,-0.6691,-0.7178
1772930401901.5388,-0.0207,-0.6695,-0.7185
1772930401901.5388,-0.0212,-0.6661,-0.7179
1772930401901.5388,-0.0176,-0.6683,-0.716
1772930401918.1184,-0.0193,-0.6681,-0.7152
1772930401918.1184,-0.0171,-0.6667,-0.7127
1772930401918.1184,-0.0163,-0.6686,-0.7149
1772930401918.1184,-0.0158,-0.6644,-0.7139
1772930401918.1184,-0.0133,-0.6636,-0.7106
1772930401918.1184,-0.0121,-0.6644,-0.7111
1772930401933.3774,-0.0115,-0.6634,-0.7137
1772930401933.3774,-0.0114,-0.6616,-0.7108
1772930401933.3774,-0.0126,-0.6614,-0.7126
1772930401933.3774,-0.0109,-0.6607,-0.7088
1772930401933.3774,-0.0117,-0.6588,-0.7087
1772930401933.3774,-0.011,-0.6578,-0.7133
1772930401933.3774,-0.0129,-0.6567,-0.7122
1772930401949.4912,-0.0109,-0.655,-0.7132
1772930401949.4912,-0.0108,-0.6529,-0.71
1772930401949.4912,-0.0137,-0.6543,-0.7132
1772930401949.4912,-0.0109,-0.6546,-0.7106
1772930401949.4912,-0.0104,-0.6535,-0.711
1772930401949.4912,-0.0122,-0.6542,-0.7113
1772930401949.4912,-0.0113,-0.6549,-0.7103
1772930401949.4912,-0.0136,-0.6553,-0.7096
1772930401964.8604,-0.0113,-0.652,-0.7097
1772930401964.8604,-0.0123,-0.6542,-0.7103
1772930401964.8604,-0.0127,-0.6559,-0.7076
1772930401964.8604,-0.0122,-0.6572,-0.7061
1772930401964.8604,-0.0126,-0.66,-0.7085
1772930401964.8604,-0.0135,-0.6581,-0.7102
1772930401964.8604,-0.0121,-0.6605,-0.7096
1772930401964.8604,-0.0141,-0.6632,-0.7081
1772930401981.0344,-0.0135,-0.6629,-0.7078
1772930401981.0344,-0.0135,-0.6629,-0.7115
1772930401981.0344,-0.0102,-0.6654,-0.7132
1772930401981.0344,-0.0126,-0.6667,-0.7102
1772930401981.0344,-0.0141,-0.6645,-0.7117
1772930401981.0344,-0.0124,-0.6648,-0.7102
1772930401981.0344,-0.0123,-0.6648,-0.7148
1772930401996.6418,-0.0123,-0.6659,-0.7161
1772930401996.6418,-0.0128,-0.6675,-0.7114
1772930401996.6418,-0.0148,-0.6683,-0.7138
1772930401996.6418,-0.0152,-0.6669,-0.7165
1772930401996.6418,-0.0168,-0.6678,-0.717
1772930401996.6418,-0.0184,-0.6667,-0.72
1772930401996.6418,-0.0174,-0.668,-0.7211
1772930401996.6418,-0.0183,-0.6684,-0.7193
1772930402012.213,-0.0192,-0.6695,-0.7236
1772930402012.213,-0.0218,-0.669,-0.7236
1772930402012.213,-0.0198,-0.6765,-0.725
1772930402012.213,-0.0195,-0.677,-0.7238
1772930402012.213,-0.0176,-0.6747,-0.7279
1772930402027.758,-0.0148,-0.6715,-0.7283
1772930402027.758,-0.0126,-0.6686,-0.7293
1772930402027.758,-0.016,-0.6701,-0.7324
1772930402027.758,-0.0146,-0.6668,-0.7304
1772930402027.758,-0.0134,-0.6705,-0.7283
1772930402027.758,-0.0116,-0.6726,-0.7277
1772930402027.758,-0.0123,-0.672,-0.7272
1772930402027.758,-0.0089,-0.6762,-0.7241
1772930402043.461,-0.0063,-0.6797,-0.7178
1772930402043.461,-0.0072,-0.6805,-0.7155
1772930402043.461,-0.0076,-0.6791,-0.7134
1772930402043.461,-0.0056,-0.6791,-0.7121
1772930402043.461,-0.004,-0.6792,-0.7079
1772930402043.461,-0.0063,-0.6762,-0.711
1772930402043.461,-0.0079,-0.6753,-0.7113
1772930402059.5527,-0.0108,-0.6755,-0.7144
1772930402059.5527,-0.0148,-0.6742,-0.7144
1772930402059.5527,-0.0155,-0.6739,-0.7169
1772930402059.5527,-0.0162,-0.6726,-0.7153
1772930402059.5527,-0.0159,-0.6721,-0.7169
1772930402059.5527,-0.0182,-0.6728,-0.718
1772930402059.5527,-0.0175,-0.6713,-0.7189
1772930402059.5527,-0.017,-0.6701,-0.7208
1772930402074.822,-0.0164,-0.6683,-0.7248
1772930402074.822,-0.0164,-0.6684,-0.7225
1772930402074.822,-0.0173,-0.6681,-0.725
1772930402074.822,-0.0158,-0.6687,-0.7255
1772930402074.822,-0.0143,-0.669,-0.7248
1772930402074.822,-0.0131,-0.6688,-0.7213
1772930402074.822,-0.0112,-0.6698,-0.7183
1772930402074.822,-0.0073,-0.6717,-0.7175
1772930402089.9822,-0.0041,-0.6699,-0.7144
1772930402089.9822,-0.0043,-0.6725,-0.7159
1772930402089.9822,-0.0048,-0.6715,-0.7114
1772930402089.9822,-0.0035,-0.6715,-0.7119
1772930402089.9822,-0.0056,-0.671,-0.7113
1772930402104.8093,-0.0051,-0.6683,-0.7125
1772930402104.8093,-0.0056,-0.6707,-0.7108
1772930402104.8093,-0.0047,-0.6703,-0.7124
1772930402104.8093,-0.004,-0.6693,-0.713
1772930402104.8093,-0.0068,-0.6708,-0.7102
1772930402104.8093,-0.0063,-0.6716,-0.7127
1772930402104.8093,-0.0065,-0.6701,-0.7132
1772930402104.8093,-0.0093,-0.6711,-0.713
1772930402120.0015,-0.006,-0.67,-0.7167
1772930402120.0015,-0.009,-0.6687,-0.7111
1772930402120.0015,-0.0063,-0.67,-0.7183
1772930402120.0015,-0.0085,-0.6678,-0.7166
1772930402120.0015,-0.0076,-0.667,-0.7147
1772930402120.0015,-0.0103,-0.6685,-0.7146
1772930402120.0015,-0.0087,-0.6681,-0.7143
1772930402134.835,-0.0088,-0.6699,-0.7146
1772930402134.835,-0.0082,-0.6681,-0.7142
1772930402134.835,-0.0086,-0.6665,-0.7139
1772930402134.835,-0.0104,-0.6679,-0.7153
1772930402134.835,-0.0101,-0.6681,-0.7152
1772930402149.5237,-0.0103,-0.6658,-0.7147
1772930402149.5237,-0.0107,-0.6672,-0.7143
1772930402149.5237,-0.0111,-0.6684,-0.7185
1772930402149.5237,-0.0117,-0.667,-0.7139
1772930402149.5237,-0.0112,-0.6681,-0.7126
1772930402149.5237,-0.0111,-0.6695,-0.7141
1772930402149.5237,-0.0134,-0.6699,-0.7133
1772930402149.5237,-0.0106,-0.6711,-0.7135
1772930402164.651,-0.0104,-0.6687,-0.71
1772930402164.651,-0.0082,-0.6683,-0.7119
1772930402164.651,-0.0076,-0.6719,-0.7117
1772930402164.651,-0.0079,-0.6701,-0.7099
1772930402164.651,-0.0072,-0.6687,-0.7117
1772930402164.651,-0.0052,-0.671,-0.7099
1772930402164.651,-0.0084,-0.6705,-0.7123
1772930402164.651,-0.0074,-0.6701,-0.7132
1772930402180.215,-0.0048,-0.6739,-0.7115
1772930402180.215,-0.0106,-0.6714,-0.7133
1772930402180.215,-0.0073,-0.6731,-0.7099
1772930402180.215,-0.009,-0.6727,-0.7088
1772930402180.215,-0.0071,-0.6739,-0.7112
1772930402180.215,-0.0068,-0.674,-0.7078
1772930402180.215,-0.0065,-0.6745,-0.7115
1772930402195.4092,-0.003,-0.6742,-0.7099
1772930402195.4092,-0.0046,-0.6706,-0.7062
1772930402195.4092,-0.0049,-0.6744,-0.7051
1772930402195.4092,-0.0057,-0.6728,-0.7109
1772930402195.4092,-0.0057,-0.6751,-0.7091
1772930402195.4092,-0.0051,-0.6744,-0.708
1772930402211.0286,-0.0057,-0.6745,-0.708
1772930402211.0286,-0.0065,-0.6748,-0.7097
1772930402211.0286,-0.0057,-0.6703,-0.7122
1772930402211.0286,-0.0069,-0.6684,-0.7138
1772930402211.0286,-0.0059,-0.669,-0.7121
1772930402211.0286,-0.0077,-0.6688,-0.7105
1772930402211.0286,-0.0076,-0.668,-0.7109
1772930402227.1042,-0.0063,-0.6667,-0.7111
1772930402227.1042,-0.0079,-0.6689,-0.7094
1772930402227.1042,-0.0093,-0.67,-0.7113
1772930402227.1042,-0.0084,-0.669,-0.7113
1772930402227.1042,-0.0087,-0.67,-0.7092
1772930402227.1042,-0.0081,-0.6697,-0.7092
1772930402227.1042,-0.0084,-0.6712,-0.7084
1772930402227.1042,-0.0093,-0.6715,-0.7114
1772930402243.6167,-0.0088,-0.6736,-0.7094
1772930402243.6167,-0.0089,-0.6744,-0.7093
1772930402243.6167,-0.0084,-0.6778,-0.7076
1772930402243.6167,-0.0089,-0.6763,-0.7116
1772930402243.6167,-0.006,-0.675,-0.7105
1772930402243.6167,-0.0072,-0.6805,-0.7131
1772930402243.6167,-0.0068,-0.6797,-0.7136
1772930402243.6167,-0.0081,-0.6778,-0.7108
1772930402259.6836,-0.0059,-0.68,-0.714
1772930402259.6836,-0.0087,-0.6762,-0.7144
1772930402259.6836,-0.0074,-0.6781,-0.7142
1772930402259.6836,-0.0083,-0.6794,-0.7163
1772930402259.6836,-0.0071,-0.6773,-0.7159
1772930402259.6836,-0.0095,-0.6768,-0.7137
1772930402259.6836,-0.0063,-0.6761,-0.7158
1772930402274.855,-0.0099,-0.676,-0.7149
1772930402274.855,-0.0111,-0.6756,-0.7167
1772930402274.855,-0.0101,-0.6751,-0.7161
1772930402274.855,-0.0095,-0.6748,-0.7172
1772930402274.855,-0.0121,-0.6741,-0.7171
1772930402274.855,-0.0091,-0.6736,-0.7158
1772930402274.855,-0.0113,-0.6742,-0.7181
1772930402274.855,-0.0095,-0.674,-0.7164
1772930402290.7974,-0.0121,-0.6725,-0.716
1772930402290.7974,-0.0116,-0.6743,-0.7177
1772930402290.7974,-0.0107,-0.6751,-0.7156
1772930402290.7974,-0.0102,-0.6751,-0.7139
1772930402290.7974,-0.0133,-0.6748,-0.7133
1772930402290.7974,-0.0121,-0.675,-0.7127
1772930402290.7974,-0.0138,-0.675,-0.7136
1772930402290.7974,-0.0095,-0.6761,-0.7094
1772930402305.9277,-0.011,-0.6759,-0.7066
1772930402305.9277,-0.0116,-0.6778,-0.7096
1772930402305.9277,-0.0116,-0.6789,-0.711
1772930402305.9277,-0.0108,-0.6808,-0.7086
1772930402305.9277,-0.0109,-0.683,-0.7051
1772930402321.727,-0.0099,-0.6833,-0.7086
1772930402321.727,-0.0089,-0.6853,-0.7078
1772930402321.727,-0.011,-0.6849,-0.7085
1772930402321.727,-0.0112,-0.6842,-0.7103
1772930402321.727,-0.0101,-0.6809,-0.7094
1772930402321.727,-0.0085,-0.683,-0.7082
1772930402321.727,-0.0121,-0.6829,-0.7079
1772930402337.9827,-0.0112,-0.6814,-0.7085
1772930402337.9827,-0.007,-0.6814,-0.7064
1772930402337.9827,-0.0064,-0.6812,-0.7078
1772930402337.9827,-0.0077,-0.6787,-0.7027
1772930402337.9827,-0.0084,-0.6791,-0.705
1772930402337.9827,-0.0064,-0.6795,-0.7037
1772930402337.9827,-0.0068,-0.6795,-0.7052
1772930402337.9827,-0.0066,-0.6795,-0.7041
1772930402353.592,-0.0065,-0.6791,-0.7049
1772930402353.592,-0.0053,-0.679,-0.7033
1772930402353.592,-0.0069,-0.6792,-0.7064
1772930402353.592,-0.0071,-0.6808,-0.7053
1772930402353.592,-0.0048,-0.6802,-0.7044
1772930402353.592,-0.0075,-0.681,-0.7047
1772930402353.592,-0.0065,-0.6782,-0.7055
1772930402353.592,-0.0081,-0.678,-0.7053
1772930402369.2927,-0.0082,-0.674,-0.7101
1772930402369.2927,-0.0095,-0.6761,-0.7049
1772930402369.2927,-0.0091,-0.6761,-0.7074
1772930402369.2927,-0.0087,-0.6745,-0.7064
1772930402369.2927,-0.007,-0.6726,-0.7094
1772930402369.2927,-0.0073,-0.6726,-0.7053
1772930402369.2927,-0.0079,-0.6727,-0.7095
1772930402369.2927,-0.008,-0.6714,-0.7061
1772930402384.8381,-0.007,-0.6684,-0.707
1772930402384.8381,-0.0068,-0.6668,-0.7082
1772930402384.8381,-0.0068,-0.666,-0.7057
1772930402384.8381,-0.0073,-0.6679,-0.7087
1772930402384.8381,-0.0083,-0.6684,-0.7083
1772930402384.8381,-0.007,-0.6679,-0.7075
1772930402384.8381,-0.0065,-0.6678,-0.7067
1772930402400.4692,-0.0092,-0.6719,-0.7071
1772930402400.4692,-0.0082,-0.6701,-0.7084
1772930402400.4692,-0.0074,-0.6705,-0.7125
1772930402400.4692,-0.0096,-0.6702,-0.7102
1772930402400.4692,-0.0098,-0.6722,-0.7092
1772930402416.324,-0.0099,-0.6752,-0.7083
1772930402416.324,-0.0087,-0.6738,-0.7099
1772930402416.324,-0.0088,-0.6736,-0.7082
1772930402416.324,-0.0085,-0.6732,-0.7092
1772930402416.324,-0.0121,-0.6772,-0.71
1772930402416.324,-0.0097,-0.6753,-0.7107
1772930402416.324,-0.0108,-0.6751,-0.7109
1772930402416.324,-0.0111,-0.6784,-0.7109
1772930402431.9011,-0.0111,-0.6768,-0.7103
1772930402431.9011,-0.0109,-0.6787,-0.7114
1772930402431.9011,-0.0102,-0.6792,-0.7091
1772930402431.9011,-0.0091,-0.6784,-0.7092
1772930402431.9011,-0.0065,-0.6791,-0.7086
1772930402431.9011,-0.0068,-0.6787,-0.7075
1772930402431.9011,-0.0042,-0.6814,-0.7095
1772930402431.9011,-0.0037,-0.6823,-0.7054
1772930402447.9553,-0.004,-0.68,-0.7052
1772930402447.9553,-0.0026,-0.6812,-0.7069
1772930402447.9553,-0.0021,-0.6825,-0.7063
1772930402447.9553,-0.0002,-0.6828,-0.7059
1772930402447.9553,-0.001,-0.68,-0.7075
1772930402447.9553,-0.0018,-0.6828,-0.7089
1772930402447.9553,-0.0035,-0.6846,-0.7082
1772930402463.1052,-0.0032,-0.6812,-0.7094
1772930402463.1052,-0.0045,-0.6805,-0.7103
1772930402463.1052,-0.0083,-0.6791,-0.712
1772930402463.1052,-0.0081,-0.6809,-0.7124
1772930402463.1052,-0.0081,-0.6794,-0.7124
1772930402463.1052,-0.0102,-0.6795,-0.7105
1772930402463.1052,-0.0115,-0.6817,-0.7124
1772930402463.1052,-0.0094,-0.6802,-0.7127
1772930402479.272,-0.0106,-0.6813,-0.7129
1772930402479.272,-0.0101,-0.6798,-0.7112
1772930402479.272,-0.0084,-0.6809,-0.7108
1772930402479.272,-0.0094,-0.6802,-0.713
1772930402479.272,-0.011,-0.68,-0.7118
1772930402479.272,-0.0086,-0.6787,-0.7133
1772930402479.272,-0.0079,-0.6802,-0.7081
1772930402479.272,-0.0072,-0.6788,-0.7113
1772930402494.8877,-0.0059,-0.6795,-0.7105
1772930402494.8877,-0.0088,-0.6804,-0.7072
1772930402494.8877,-0.0059,-0.6822,-0.7077
1772930402494.8877,-0.0065,-0.6792,-0.708
1772930402494.8877,-0.0065,-0.6769,-0.7087
1772930402509.94,-0.0051,-0.6802,-0.7059
1772930402509.94,-0.0032,-0.6803,-0.7035
1772930402509.94,-0.0047,-0.6809,-0.7036
1772930402509.94,-0.0052,-0.6814,-0.7032
1772930402509.94,-0.0026,-0.6827,-0.7029
1772930402509.94,-0.0032,-0.6828,-0.7019
1772930402509.94,-0.0027,-0.6839,-0.6995
1772930402509.94,-0.0024,-0.6825,-0.7019
1772930402526.027,-0.0024,-0.6828,-0.7008
1772930402526.027,-0.0042,-0.6807,-0.7038
1772930402526.027,0.0007,-0.6821,-0.7013
1772930402526.027,-0.0009,-0.6781,-0.7006
1772930402526.027,-0.0041,-0.6781,-0.6999
1772930402526.027,-0.0046,-0.6783,-0.6995
1772930402526.027,-0.005,-0.6798,-0.7026
1772930402541.597,-0.003,-0.6805,-0.7038
1772930402541.597,-0.0034,-0.6781,-0.7022
1772930402541.597,-0.0052,-0.6772,-0.7015
1772930402541.597,-0.0046,-0.6795,-0.6999
1772930402541.597,-0.0048,-0.6785,-0.7008
1772930402541.597,-0.0077,-0.6772,-0.6991
1772930402541.597,-0.0043,-0.6788,-0.7025
1772930402541.597,-0.0059,-0.678,-0.7027
1772930402557.7483,-0.0063,-0.6809,-0.7019
1772930402557.7483,-0.0074,-0.6776,-0.7037
1772930402557.7483,-0.0081,-0.6786,-0.7046
1772930402557.7483,-0.0065,-0.6799,-0.7038
1772930402557.7483,-0.0045,-0.681,-0.7062
1772930402557.7483,-0.0059,-0.6784,-0.7059
