Time_ms,ax,ay,az,gx,gy,gz
1772976489898.6045,-0.9793,-0.1088,-0.1187,3.255,-4.944,-0.07
1772976489898.6045,-0.9764,-0.1057,-0.1182,2.949,-4.856,0.096
1772976489898.6045,-0.9781,-0.1044,-0.1225,3.124,-4.76,-0.324
1772976489898.6045,-0.9775,-0.1044,-0.1167,3.36,-4.83,-0.315
1772976489898.6045,-0.9778,-0.1058,-0.1196,3.089,-4.874,-0.403
1772976489898.6045,-0.979,-0.1026,-0.1195,3.22,-4.935,0.018
1772976489898.6045,-0.9784,-0.1021,-0.1192,3.054,-4.734,-0.28
1772976489898.6045,-0.9767,-0.1015,-0.1183,2.914,-5.022,-0.228
1772976489898.6045,-0.9754,-0.1011,-0.1185,2.896,-4.926,-0.411
1772976489898.6045,-0.9748,-0.0995,-0.1229,2.958,-5.04,-0.219
1772976489898.6045,-0.9758,-0.0984,-0.1204,2.949,-4.821,-0.122
1772976489898.6045,-0.9722,-0.1,-0.1225,2.87,-4.699,-0.324
1772976489898.6045,-0.9714,-0.0972,-0.1206,2.993,-4.699,-0.49
1772976489914.329,-0.9739,-0.0961,-0.1208,2.783,-4.62,-0.394
1772976489914.329,-0.9751,-0.0992,-0.1213,2.817,-5.022,-0.481
1772976489914.329,-0.9749,-0.0996,-0.1204,2.861,-5.162,-0.367
1772976489914.329,-0.9733,-0.0987,-0.1191,2.791,-4.883,-0.787
1772976489914.329,-0.9753,-0.0998,-0.1171,2.704,-4.611,-0.787
1772976489914.329,-0.9753,-0.1002,-0.1202,2.765,-4.865,-0.919
1772976489914.329,-0.9756,-0.101,-0.1181,2.756,-4.83,-0.849
1772976489914.329,-0.9751,-0.103,-0.1181,2.861,-4.979,-0.884
1772976489914.329,-0.9755,-0.1005,-0.1159,2.966,-4.952,-0.866
1772976489914.329,-0.9775,-0.101,-0.1185,2.958,-4.926,-1.146
1772976489914.329,-0.9781,-0.0987,-0.1171,2.73,-4.638,-1.173
1772976489914.329,-0.9768,-0.1003,-0.1185,2.896,-4.742,-1.216
1772976489914.329,-0.9776,-0.1002,-0.1158,2.966,-4.699,-1.365
1772976489930.962,-0.9778,-0.1013,-0.115,2.905,-4.699,-1.295
1772976489930.962,-0.9784,-0.1026,-0.1155,2.817,-4.848,-1.365
1772976489930.962,-0.9781,-0.1011,-0.1144,2.791,-4.506,-1.312
1772976489930.962,-0.9765,-0.1033,-0.1135,2.756,-4.463,-1.409
1772976489930.962,-0.9766,-0.1071,-0.1152,2.853,-4.594,-1.776
1772976489930.962,-0.9746,-0.1067,-0.1144,3.115,-4.541,-1.82
1772976489930.962,-0.9759,-0.1087,-0.1138,2.835,-4.296,-1.558
1772976489930.962,-0.9744,-0.1079,-0.1157,2.748,-4.261,-1.54
1772976489930.962,-0.9737,-0.1096,-0.1161,2.765,-4.244,-1.689
1772976489930.962,-0.9762,-0.1086,-0.1168,2.966,-4.454,-1.452
1772976489930.962,-0.9749,-0.1114,-0.116,2.993,-4.638,-1.61
1772976489930.962,-0.976,-0.1121,-0.1144,2.975,-4.594,-1.409
1772976489930.962,-0.9746,-0.1125,-0.1181,3.036,-4.296,-1.549
1772976489946.9958,-0.9748,-0.1142,-0.1182,3.019,-4.463,-1.365
1772976489946.9958,-0.9712,-0.1133,-0.1175,3.054,-4.489,-1.199
1772976489946.9958,-0.9733,-0.1129,-0.1157,3.001,-4.655,-1.409
1772976489946.9958,-0.9733,-0.116,-0.118,3.054,-4.567,-1.531
1772976489946.9958,-0.9729,-0.1143,-0.1186,3.264,-4.541,-1.164
1772976489946.9958,-0.9743,-0.1124,-0.1205,3.071,-4.524,-1.094
1772976489946.9958,-0.9717,-0.1127,-0.1172,3.22,-4.716,-1.137
1772976489946.9958,-0.9725,-0.1147,-0.1178,3.098,-4.725,-1.435
1772976489946.9958,-0.9711,-0.116,-0.1174,3.036,-4.935,-1.286
1772976489946.9958,-0.9692,-0.1174,-0.1179,3.211,-4.83,-1.032
1772976489946.9958,-0.9689,-0.1164,-0.1207,3.264,-4.603,-1.059
1772976489946.9958,-0.9709,-0.1173,-0.1218,3.272,-4.987,-0.849
1772976489946.9958,-0.97,-0.1185,-0.1189,3.229,-4.777,-0.735
1772976489963.0388,-0.9725,-0.1184,-0.1209,3.299,-5.066,-0.805
1772976489963.0388,-0.9726,-0.1166,-0.1218,3.325,-5.022,-0.674
1772976489963.0388,-0.9735,-0.1154,-0.1233,3.404,-4.856,-0.726
1772976489963.0388,-0.9736,-0.1139,-0.1224,3.334,-5.084,-0.665
1772976489963.0388,-0.976,-0.1147,-0.1222,3.316,-5.18,-0.438
1772976489963.0388,-0.9755,-0.1107,-0.1236,3.167,-5.451,-0.525
1772976489963.0388,-0.9783,-0.1102,-0.1242,3.132,-5.276,-0.464
1772976489963.0388,-0.9768,-0.1123,-0.1249,3.176,-5.46,-0.481
1772976489963.0388,-0.9769,-0.1103,-0.1237,3.124,-5.276,-0.464
1772976489963.0388,-0.9781,-0.1101,-0.1232,3.194,-5.022,-0.56
1772976489963.0388,-0.9805,-0.1104,-0.1252,3.255,-5.075,-0.438
1772976489963.0388,-0.9809,-0.1102,-0.127,3.036,-5.39,-0.56
1772976489963.0388,-0.9818,-0.1093,-0.1257,2.861,-5.145,-0.507
1772976489978.6326,-0.9834,-0.1091,-0.1247,2.914,-5.084,-0.394
1772976489978.6326,-0.9848,-0.1072,-0.1245,3.098,-5.145,-0.49
1772976489978.6326,-0.9843,-0.1089,-0.1243,2.879,-5.093,-0.578
1772976489978.6326,-0.9867,-0.1068,-0.1268,2.87,-4.935,-0.752
1772976489978.6326,-0.9869,-0.1052,-0.1267,2.896,-4.839,-0.621
1772976489978.6326,-0.9869,-0.1058,-0.1273,2.853,-4.874,-0.858
1772976489978.6326,-0.9877,-0.1082,-0.1266,2.931,-4.742,-0.787
1772976489978.6326,-0.988,-0.1072,-0.1279,2.809,-4.9,-0.884
1772976489978.6326,-0.9862,-0.1088,-0.1257,2.896,-4.83,-1.12
1772976489978.6326,-0.9874,-0.1101,-0.1265,2.835,-5.005,-1.103
1772976489978.6326,-0.9904,-0.1085,-0.1251,2.8,-4.856,-1.208
1772976489978.6326,-0.9911,-0.1094,-0.124,2.704,-4.716,-1.181
1772976489978.6326,-0.9916,-0.1081,-0.1247,2.8,-4.742,-1.383
1772976489994.3218,-0.9911,-0.1086,-0.1244,2.826,-4.707,-1.295
1772976489994.3218,-0.9905,-0.1077,-0.1232,2.59,-4.856,-1.321
1772976489994.3218,-0.99,-0.1094,-0.1246,2.607,-4.62,-1.426
1772976489994.3218,-0.9887,-0.1086,-0.124,2.607,-4.769,-1.654
1772976489994.3218,-0.9869,-0.1113,-0.124,2.73,-4.9,-1.584
1772976489994.3218,-0.9852,-0.1083,-0.1222,2.844,-4.918,-1.706
1772976489994.3218,-0.9871,-0.1097,-0.1205,2.66,-4.935,-1.811
1772976489994.3218,-0.985,-0.1112,-0.1219,2.564,-5.031,-1.907
1772976489994.3218,-0.9847,-0.1123,-0.1205,2.66,-4.725,-1.741
1772976489994.3218,-0.9845,-0.1144,-0.1192,2.546,-4.839,-1.759
1772976489994.3218,-0.9809,-0.1112,-0.1156,2.599,-4.83,-1.864
1772976489994.3218,-0.9803,-0.1135,-0.1146,2.616,-4.804,-2.021
1772976489994.3218,-0.9805,-0.1148,-0.113,2.721,-4.961,-1.986
1772976490010.2822,-0.9797,-0.1114,-0.1131,2.651,-4.664,-1.75
1772976490010.2822,-0.9806,-0.1162,-0.1132,2.643,-4.952,-1.759
1772976490010.2822,-0.978,-0.1147,-0.1115,2.389,-4.839,-1.724
1772976490010.2822,-0.979,-0.1161,-0.1121,2.406,-4.751,-1.689
1772976490010.2822,-0.9766,-0.1171,-0.1115,2.459,-4.707,-1.68
1772976490010.2822,-0.9732,-0.1164,-0.1115,2.66,-4.576,-1.295
1772976490010.2822,-0.975,-0.1174,-0.1114,2.686,-4.734,-1.409
1772976490010.2822,-0.975,-0.1179,-0.1103,2.476,-4.629,-1.26
1772976490010.2822,-0.9725,-0.1157,-0.1065,2.52,-4.76,-1.33
1772976490010.2822,-0.9706,-0.115,-0.1077,2.59,-4.585,-1.278
1772976490010.2822,-0.9718,-0.1144,-0.1096,2.188,-4.655,-1.067
1772976490010.2822,-0.9678,-0.1145,-0.108,2.319,-4.707,-1.05
1772976490025.8127,-0.9705,-0.1155,-0.1104,2.328,-4.62,-0.98
1772976490025.8127,-0.9667,-0.1155,-0.109,2.397,-4.918,-0.901
1772976490025.8127,-0.9697,-0.1132,-0.1078,2.511,-4.646,-0.814
1772976490025.8127,-0.9667,-0.115,-0.1075,2.38,-4.541,-0.866
1772976490025.8127,-0.9692,-0.1125,-0.1057,2.712,-4.716,-0.989
1772976490025.8127,-0.9684,-0.1134,-0.1074,2.835,-4.62,-0.787
1772976490025.8127,-0.9694,-0.114,-0.1058,2.861,-4.41,-0.595
1772976490025.8127,-0.9682,-0.1134,-0.1066,2.765,-4.497,-0.586
1772976490025.8127,-0.9688,-0.1132,-0.1069,2.616,-4.419,-0.884
1772976490025.8127,-0.9683,-0.1152,-0.1111,2.748,-4.357,-0.858
1772976490025.8127,-0.9705,-0.1127,-0.1114,2.572,-4.419,-0.91
1772976490025.8127,-0.9707,-0.1123,-0.1113,2.958,-4.314,-1.05
1772976490025.8127,-0.9691,-0.1129,-0.1113,2.844,-4.253,-0.831
1772976490041.3083,-0.9692,-0.1128,-0.1103,2.748,-4.41,-1.032
1772976490041.3083,-0.9697,-0.1115,-0.1122,2.905,-4.34,-1.461
1772976490041.3083,-0.9689,-0.1099,-0.1135,2.922,-4.419,-1.435
1772976490041.3083,-0.9675,-0.1116,-0.1128,2.94,-4.515,-1.645
1772976490041.3083,-0.9716,-0.1121,-0.1125,2.826,-4.506,-1.593
1772976490041.3083,-0.9719,-0.1118,-0.1119,2.993,-4.506,-1.802
1772976490041.3083,-0.9698,-0.1124,-0.1133,2.651,-4.428,-1.409
1772976490041.3083,-0.9714,-0.1108,-0.1148,2.958,-4.524,-1.558
1772976490041.3083,-0.9706,-0.1116,-0.1158,3.019,-4.629,-1.741
1772976490041.3083,-0.9736,-0.1103,-0.1157,3.054,-4.532,-1.934
1772976490041.3083,-0.975,-0.1098,-0.1169,2.949,-4.742,-1.724
1772976490041.3083,-0.9729,-0.1128,-0.1164,2.949,-4.611,-1.706
1772976490041.3083,-0.9742,-0.1116,-0.1197,2.914,-4.576,-1.934
1772976490057.8547,-0.9738,-0.1094,-0.12,2.783,-4.559,-1.488
1772976490057.8547,-0.9782,-0.1105,-0.1216,2.835,-4.839,-1.776
1772976490057.8547,-0.9753,-0.1108,-0.1215,2.835,-4.883,-1.811
1772976490057.8547,-0.9748,-0.1107,-0.1196,3.071,-5.066,-1.794
1772976490057.8547,-0.9742,-0.1112,-0.1249,2.958,-4.848,-1.873
1772976490057.8547,-0.9759,-0.1121,-0.1243,2.914,-4.891,-1.986
1772976490057.8547,-0.9775,-0.1097,-0.1238,2.809,-5.031,-1.934
1772976490057.8547,-0.9767,-0.1105,-0.1245,2.844,-4.979,-1.759
1772976490057.8547,-0.977,-0.1106,-0.1236,2.809,-5.04,-1.925
1772976490057.8547,-0.9806,-0.1141,-0.1232,2.704,-5.189,-1.873
1772976490057.8547,-0.9812,-0.1148,-0.1202,2.721,-4.812,-1.916
1772976490057.8547,-0.9821,-0.1118,-0.123,2.844,-4.961,-1.96
1772976490057.8547,-0.9819,-0.1126,-0.1237,2.835,-5.119,-1.829
1772976490073.3782,-0.9798,-0.1147,-0.1237,2.809,-5.162,-1.663
1772976490073.3782,-0.981,-0.1155,-0.1256,2.914,-5.128,-1.627
1772976490073.3782,-0.9822,-0.1127,-0.1269,2.774,-5.338,-1.531
1772976490073.3782,-0.9843,-0.1144,-0.1247,2.651,-5.442,-1.479
1772976490073.3782,-0.9856,-0.1142,-0.1257,2.686,-5.871,-1.61
1772976490073.3782,-0.9851,-0.1144,-0.1258,2.835,-5.67,-1.768
1772976490073.3782,-0.9858,-0.1129,-0.1261,2.66,-5.381,-1.365
1772976490073.3782,-0.986,-0.1123,-0.124,2.721,-5.74,-1.435
1772976490073.3782,-0.9865,-0.1133,-0.1247,2.783,-5.591,-1.181
1772976490073.3782,-0.987,-0.113,-0.1256,2.87,-5.556,-1.33
1772976490073.3782,-0.9905,-0.1134,-0.1213,2.844,-5.74,-1.173
1772976490073.3782,-0.9884,-0.1117,-0.1239,2.817,-5.652,-1.374
1772976490073.3782,-0.9895,-0.1104,-0.1254,2.896,-5.6,-1.496
1772976490088.915,-0.9911,-0.1103,-0.1235,2.905,-5.74,-1.085
1772976490088.915,-0.9902,-0.1103,-0.1233,2.966,-5.749,-0.945
1772976490088.915,-0.9884,-0.1125,-0.1244,2.958,-5.723,-1.067
1772976490088.915,-0.9894,-0.1112,-0.1232,2.756,-5.696,-1.094
1772976490088.915,-0.9903,-0.1107,-0.1257,2.914,-5.749,-1.339
1772976490088.915,-0.9884,-0.1074,-0.1245,2.966,-5.565,-1.251
1772976490088.915,-0.9881,-0.11,-0.1221,3.027,-5.521,-1.286
1772976490088.915,-0.988,-0.1123,-0.1252,3.045,-5.749,-1.321
1772976490088.915,-0.9877,-0.111,-0.1232,3.15,-5.652,-1.181
1772976490088.915,-0.9898,-0.1086,-0.1255,2.896,-5.635,-1.146
1772976490088.915,-0.9878,-0.1102,-0.1237,3.019,-5.644,-1.076
1772976490088.915,-0.9871,-0.1091,-0.1237,3.08,-5.486,-0.954
1772976490104.9475,-0.9875,-0.1089,-0.1243,3.045,-5.478,-0.98
1772976490104.9475,-0.9846,-0.1087,-0.1265,3.062,-5.556,-0.919
1772976490104.9475,-0.9828,-0.1079,-0.126,3.132,-5.714,-0.849
1772976490104.9475,-0.9837,-0.1063,-0.1222,3.159,-5.311,-0.858
1772976490104.9475,-0.9822,-0.1017,-0.1237,3.237,-5.626,-1.111
1772976490104.9475,-0.9831,-0.1053,-0.1265,3.203,-5.661,-1.19
1772976490104.9475,-0.9822,-0.1049,-0.1248,3.176,-5.46,-1.208
1772976490104.9475,-0.9806,-0.1027,-0.1235,3.019,-5.434,-1.129
1772976490104.9475,-0.9816,-0.1035,-0.1204,2.844,-5.416,-1.304
1772976490104.9475,-0.9784,-0.1022,-0.1211,3.01,-5.346,-1.304
1772976490104.9475,-0.9805,-0.1013,-0.1236,3.106,-5.434,-1.304
1772976490104.9475,-0.9792,-0.1011,-0.1226,3.237,-5.469,-1.251
1772976490104.9475,-0.9809,-0.1046,-0.1208,3.062,-5.25,-1.374
1772976490120.966,-0.9796,-0.1036,-0.1205,3.141,-4.909,-1.356
1772976490120.966,-0.9802,-0.102,-0.1212,2.817,-5.241,-1.61
1772976490120.966,-0.9812,-0.1035,-0.1213,3.001,-5.084,-1.785
1772976490120.966,-0.9772,-0.1047,-0.1224,3.08,-5.058,-1.68
1772976490120.966,-0.9769,-0.1045,-0.1226,2.888,-4.786,-1.558
1772976490120.966,-0.9762,-0.1036,-0.123,2.958,-5.084,-1.82
1772976490120.966,-0.9764,-0.1043,-0.1209,2.896,-4.918,-1.75
1772976490120.966,-0.9786,-0.1005,-0.1213,2.809,-4.918,-1.785
1772976490120.966,-0.9769,-0.103,-0.122,3.019,-4.603,-1.698
1772976490120.966,-0.9767,-0.1019,-0.1217,2.774,-4.629,-1.645
1772976490120.966,-0.9769,-0.1006,-0.1197,2.73,-4.603,-1.627
1772976490120.966,-0.9748,-0.0994,-0.1221,2.686,-4.454,-1.558
1772976490120.966,-0.9737,-0.0976,-0.1223,2.397,-4.419,-1.768
1772976490136.1443,-0.9718,-0.0989,-0.1216,2.599,-4.681,-1.732
1772976490136.1443,-0.9704,-0.0974,-0.1214,2.922,-4.751,-1.855
1772976490136.1443,-0.9687,-0.0983,-0.1213,3.019,-4.541,-1.907
1772976490136.1443,-0.9688,-0.1019,-0.1237,2.748,-4.603,-1.837
1772976490136.1443,-0.967,-0.1022,-0.121,2.686,-4.655,-2.065
1772976490136.1443,-0.97,-0.1055,-0.1234,2.896,-4.454,-2.03
1772976490136.1443,-0.9721,-0.1062,-0.1227,3.01,-4.375,-1.89
1772976490136.1443,-0.9705,-0.1074,-0.1241,2.984,-4.646,-1.724
1772976490136.1443,-0.9717,-0.1074,-0.122,2.949,-4.576,-1.846
1772976490136.1443,-0.9719,-0.1083,-0.1234,3.027,-4.401,-1.837
1772976490136.1443,-0.9744,-0.1099,-0.1238,3.167,-4.401,-1.732
1772976490136.1443,-0.9738,-0.1083,-0.1238,3.019,-4.375,-1.811
1772976490136.1443,-0.9748,-0.1074,-0.1261,2.87,-4.471,-1.75
1772976490151.669,-0.9756,-0.1076,-0.1268,2.87,-4.2,-1.802
1772976490151.669,-0.9741,-0.1078,-0.1269,2.712,-4.428,-1.575
1772976490151.669,-0.9767,-0.1106,-0.1288,2.73,-4.235,-1.619
1772976490151.669,-0.9744,-0.1094,-0.1252,2.599,-4.41,-1.47
1772976490151.669,-0.9737,-0.1093,-0.126,2.686,-4.428,-1.426
1772976490151.669,-0.9731,-0.1074,-0.1265,2.651,-4.532,-1.181
1772976490151.669,-0.9754,-0.1086,-0.1243,2.424,-4.585,-1.024
1772976490151.669,-0.9733,-0.1089,-0.1263,2.502,-4.497,-1.26
1772976490151.669,-0.9752,-0.1086,-0.1268,2.765,-4.576,-1.234
1772976490151.669,-0.9744,-0.1086,-0.1272,2.616,-4.384,-1.208
1772976490151.669,-0.9755,-0.1102,-0.127,2.494,-4.62,-0.866
1772976490151.669,-0.9762,-0.1112,-0.1253,2.581,-4.506,-0.831
1772976490151.669,-0.9748,-0.111,-0.1236,2.669,-4.384,-0.901
1772976490167.698,-0.9743,-0.1124,-0.125,2.555,-4.751,-0.91
1772976490167.698,-0.9754,-0.1115,-0.1249,2.704,-4.567,-0.823
1772976490167.698,-0.9741,-0.1118,-0.1245,2.599,-4.734,-0.814
1772976490167.698,-0.977,-0.1109,-0.1225,2.397,-4.76,-0.796
1772976490167.698,-0.9765,-0.1085,-0.125,2.494,-4.69,-0.752
1772976490167.698,-0.975,-0.1139,-0.1219,2.52,-4.821,-0.805
1772976490167.698,-0.9753,-0.1123,-0.123,2.651,-4.856,-0.446
1772976490167.698,-0.9761,-0.1134,-0.1249,2.695,-4.909,-0.28
1772976490167.698,-0.9775,-0.1127,-0.1219,2.817,-4.874,-0.376
1772976490167.698,-0.9792,-0.1108,-0.1202,2.879,-4.76,-0.359
1772976490167.698,-0.9796,-0.1119,-0.1215,2.809,-4.97,-0.324
1772976490167.698,-0.9781,-0.1118,-0.1216,2.94,-5.04,-0.411
1772976490184.5422,-0.9789,-0.1078,-0.122,3.01,-5.084,-0.49
1772976490184.5422,-0.9789,-0.1072,-0.1223,2.765,-4.996,-0.411
1772976490184.5422,-0.9778,-0.1077,-0.1224,2.599,-4.883,-0.324
1772976490184.5422,-0.9813,-0.1042,-0.1223,2.783,-5.232,-0.507
1772976490184.5422,-0.9794,-0.1044,-0.1218,2.538,-5.294,-0.604
1772976490184.5422,-0.9795,-0.1055,-0.1204,2.704,-5.084,-0.516
1772976490184.5422,-0.9811,-0.1043,-0.121,2.564,-5.022,-0.306
1772976490184.5422,-0.9822,-0.1046,-0.1233,2.572,-5.101,-0.455
1772976490184.5422,-0.9814,-0.104,-0.1236,2.721,-5.119,-0.516
1772976490184.5422,-0.9787,-0.1025,-0.1233,2.38,-5.128,-0.665
1772976490184.5422,-0.9803,-0.1028,-0.1228,2.38,-4.839,-0.542
1772976490184.5422,-0.9814,-0.1003,-0.1237,2.275,-4.865,-0.376
1772976490184.5422,-0.9815,-0.0996,-0.1267,2.371,-4.918,-0.691
1772976490184.5422,-0.9805,-0.1017,-0.124,2.354,-4.961,-0.674
1772976490199.7625,-0.9797,-0.1024,-0.1205,2.231,-4.751,-0.796
1772976490199.7625,-0.9801,-0.1019,-0.1218,2.126,-4.83,-0.919
1772976490199.7625,-0.9801,-0.1011,-0.121,2.109,-5.022,-0.805
1772976490199.7625,-0.9801,-0.1025,-0.1221,2.362,-4.874,-0.814
1772976490199.7625,-0.979,-0.102,-0.1221,2.205,-4.742,-0.691
1772976490199.7625,-0.9775,-0.0997,-0.1238,2.091,-4.769,-0.901
1772976490199.7625,-0.9775,-0.1027,-0.121,2.004,-4.55,-0.866
1772976490199.7625,-0.9817,-0.1019,-0.1207,1.864,-4.664,-1.129
1772976490199.7625,-0.9778,-0.1019,-0.121,1.864,-4.541,-0.796
1772976490199.7625,-0.979,-0.1047,-0.1205,1.942,-4.655,-0.936
1772976490199.7625,-0.9775,-0.1035,-0.1224,1.846,-4.716,-0.989
1772976490199.7625,-0.9789,-0.1061,-0.1235,1.75,-4.559,-0.866
1772976490215.79,-0.979,-0.1038,-0.1215,1.811,-4.664,-0.919
1772976490215.79,-0.9784,-0.1043,-0.121,2.065,-4.638,-0.831
1772976490215.79,-0.9778,-0.1063,-0.1215,1.916,-4.611,-1.059
1772976490215.79,-0.9786,-0.1052,-0.124,1.855,-4.559,-0.726
1772976490215.79,-0.9781,-0.1057,-0.1227,1.995,-4.48,-0.735
1772976490215.79,-0.9797,-0.1081,-0.1216,2.118,-4.734,-1.067
1772976490215.79,-0.9794,-0.1071,-0.1222,1.942,-4.384,-1.19
1772976490215.79,-0.9822,-0.1094,-0.1235,1.916,-4.401,-1.076
1772976490215.79,-0.9796,-0.111,-0.12,1.636,-4.576,-0.84
1772976490215.79,-0.9792,-0.1084,-0.1232,1.986,-4.751,-0.901
1772976490215.79,-0.9793,-0.1113,-0.1222,1.925,-4.69,-1.041
1772976490215.79,-0.9775,-0.112,-0.1227,1.951,-4.734,-1.164
1772976490215.79,-0.9799,-0.113,-0.1233,1.785,-4.559,-1.024
1772976490231.8237,-0.9805,-0.1125,-0.1216,1.811,-4.751,-0.927
1772976490231.8237,-0.9784,-0.1156,-0.122,1.942,-4.795,-0.814
1772976490231.8237,-0.9776,-0.115,-0.1222,1.934,-4.62,-0.578
1772976490231.8237,-0.9778,-0.119,-0.1218,2.144,-4.734,-0.674
1772976490231.8237,-0.9787,-0.1159,-0.1221,1.925,-4.541,-0.718
1772976490231.8237,-0.977,-0.1167,-0.1239,2.013,-4.497,-0.367
1772976490231.8237,-0.9782,-0.1144,-0.123,1.899,-4.655,-0.481
1772976490231.8237,-0.979,-0.1141,-0.1241,1.986,-4.856,-0.516
1772976490231.8237,-0.9795,-0.1179,-0.1238,2.074,-4.909,-0.49
1772976490231.8237,-0.9809,-0.1161,-0.1211,1.995,-4.742,-0.254
1772976490231.8237,-0.9781,-0.1159,-0.1251,2.179,-5.066,-0.341
1772976490231.8237,-0.9797,-0.1146,-0.1211,2.362,-5.145,-0.228
1772976490231.8237,-0.9783,-0.1139,-0.124,2.292,-4.952,-0.21
1772976490247.3562,-0.9801,-0.1144,-0.1273,2.179,-4.961,-0.21
1772976490247.3562,-0.9808,-0.1158,-0.1227,2.31,-5.128,-0.166
1772976490247.3562,-0.9795,-0.1139,-0.1247,2.511,-5.189,-0.315
1772976490247.3562,-0.9783,-0.1141,-0.1249,2.467,-5.329,-0.228
1772976490247.3562,-0.9781,-0.1128,-0.1233,2.546,-5.241,0.087
1772976490247.3562,-0.9775,-0.1124,-0.1252,2.502,-5.294,-0.044
1772976490247.3562,-0.9764,-0.1127,-0.1239,2.59,-5.486,-0.14
1772976490247.3562,-0.9768,-0.111,-0.1252,2.607,-5.679,-0.359
1772976490247.3562,-0.9757,-0.1094,-0.1264,2.52,-5.46,-0.035
1772976490247.3562,-0.9762,-0.109,-0.1265,2.643,-5.434,-0.079
1772976490247.3562,-0.977,-0.1059,-0.1238,2.616,-5.39,-0.184
1772976490247.3562,-0.9758,-0.108,-0.127,2.774,-5.53,-0.149
1772976490247.3562,-0.9773,-0.1053,-0.1258,2.817,-5.617,-0.158
1772976490262.8765,-0.9768,-0.1063,-0.1247,2.651,-5.504,-0.254
1772976490262.8765,-0.9755,-0.1033,-0.1257,2.66,-5.635,-0.158
1772976490262.8765,-0.9753,-0.1027,-0.1255,2.607,-5.617,0.052
1772976490262.8765,-0.9781,-0.1013,-0.1256,2.607,-5.425,-0.026
1772976490262.8765,-0.977,-0.0995,-0.1254,2.739,-5.46,-0.193
1772976490262.8765,-0.978,-0.1008,-0.1264,2.686,-5.644,-0.394
1772976490262.8765,-0.9773,-0.101,-0.1265,2.669,-5.434,-0.359
1772976490262.8765,-0.9759,-0.0996,-0.1264,2.415,-5.372,-0.201
1772976490262.8765,-0.9771,-0.0991,-0.1241,2.529,-5.416,-0.341
1772976490262.8765,-0.9769,-0.0987,-0.1277,2.459,-5.232,-0.446
1772976490262.8765,-0.9782,-0.0977,-0.1283,2.319,-5.049,-0.674
1772976490262.8765,-0.9775,-0.096,-0.1276,2.135,-5.25,-0.499
1772976490262.8765,-0.9767,-0.0964,-0.1263,2.109,-5.171,-0.367
1772976490278.3994,-0.9776,-0.0961,-0.1238,1.837,-5.215,-0.534
1772976490278.3994,-0.9771,-0.0967,-0.1279,2.161,-5.39,-0.787
1772976490278.3994,-0.9783,-0.0969,-0.1257,2.17,-4.97,-0.595
1772976490278.3994,-0.9798,-0.0963,-0.1255,2.074,-5.005,-0.613
1772976490278.3994,-0.9767,-0.0992,-0.1213,1.986,-5.014,-0.682
1772976490278.3994,-0.9786,-0.0994,-0.1243,1.619,-5.259,-0.761
1772976490278.3994,-0.9777,-0.097,-0.1232,1.593,-4.926,-0.989
1772976490278.3994,-0.9773,-0.0968,-0.125,1.942,-5.128,-0.77
1772976490278.3994,-0.9779,-0.0976,-0.1272,1.785,-5.084,-0.752
1772976490278.3994,-0.9773,-0.0972,-0.1254,1.654,-5.145,-0.936
1772976490278.3994,-0.9773,-0.0985,-0.1274,1.689,-5.084,-0.831
1772976490278.3994,-0.977,-0.1006,-0.1278,1.601,-4.839,-1.076
1772976490294.4255,-0.9765,-0.0985,-0.128,1.593,-4.725,-1.094
1772976490294.4255,-0.976,-0.0978,-0.1279,1.54,-4.777,-1.234
1772976490294.4255,-0.9756,-0.1005,-0.1271,1.488,-4.716,-1.129
1772976490294.4255,-0.9769,-0.0977,-0.127,1.558,-5.049,-1.269
1772976490294.4255,-0.9765,-0.0992,-0.1273,1.496,-4.83,-1.181
1772976490294.4255,-0.9766,-0.1003,-0.1262,1.417,-4.725,-1.111
1772976490294.4255,-0.9738,-0.0996,-0.125,1.339,-4.638,-1.365
1772976490294.4255,-0.9741,-0.103,-0.1292,1.242,-5.119,-1.234
1772976490294.4255,-0.9745,-0.1018,-0.1279,1.173,-5.154,-1.295
1772976490294.4255,-0.9753,-0.1024,-0.1252,1.076,-4.961,-1.173
1772976490294.4255,-0.9739,-0.1022,-0.1253,1.024,-5.206,-1.444
1772976490294.4255,-0.9729,-0.1011,-0.1286,1.278,-5.442,-1.488
1772976490294.4255,-0.9734,-0.1,-0.1288,1.19,-4.926,-1.26
1772976490310.4414,-0.9733,-0.099,-0.1287,1.085,-4.812,-1.347
1772976490310.4414,-0.9745,-0.0994,-0.1274,0.752,-5.093,-1.278
1772976490310.4414,-0.978,-0.1016,-0.1264,0.752,-4.918,-1.312
1772976490310.4414,-0.9749,-0.1003,-0.1271,0.709,-5.031,-1.531
1772976490310.4414,-0.9737,-0.0999,-0.128,0.787,-5.162,-1.531
1772976490310.4414,-0.9744,-0.1011,-0.1272,0.884,-5.294,-1.54
1772976490310.4414,-0.9748,-0.1004,-0.1281,0.674,-5.049,-1.409
1772976490310.4414,-0.9761,-0.1031,-0.1265,0.639,-5.031,-1.68
1772976490310.4414,-0.9765,-0.1012,-0.1278,0.656,-5.093,-1.575
1772976490310.4414,-0.9761,-0.1005,-0.127,0.411,-4.891,-1.593
1772976490310.4414,-0.9738,-0.0995,-0.1249,0.324,-4.646,-1.452
1772976490310.4414,-0.9766,-0.0992,-0.126,0.403,-4.699,-1.321
1772976490310.4414,-0.9746,-0.1002,-0.1256,0.507,-5.022,-1.505
1772976490326.461,-0.9755,-0.0991,-0.126,0.175,-5.014,-1.374
1772976490326.461,-0.9747,-0.1011,-0.1227,0.385,-5.066,-1.829
1772976490326.461,-0.9754,-0.0996,-0.1243,0.49,-4.935,-1.881
1772976490326.461,-0.9762,-0.1037,-0.1238,0.28,-4.83,-1.663
1772976490326.461,-0.9753,-0.1038,-0.1247,0.271,-5.014,-1.942
1772976490326.461,-0.9766,-0.1071,-0.1227,0.315,-5.093,-2.021
1772976490326.461,-0.9775,-0.1086,-0.1271,0.647,-4.9,-1.925
1772976490326.461,-0.9784,-0.1109,-0.1243,0.761,-4.769,-2.152
1772976490326.461,-0.983,-0.1111,-0.1232,0.875,-4.9,-2.083
1772976490326.461,-0.98,-0.1154,-0.1243,0.787,-4.97,-1.881
1772976490326.461,-0.9829,-0.1152,-0.1227,0.84,-5.101,-1.89
1772976490326.461,-0.9812,-0.113,-0.1272,0.919,-5.022,-1.759
1772976490326.461,-0.9828,-0.1179,-0.1258,1.041,-4.874,-1.969
1772976490341.9907,-0.9821,-0.1147,-0.1252,0.963,-5.093,-1.89
1772976490341.9907,-0.9822,-0.1171,-0.1247,0.691,-5.189,-1.68
1772976490341.9907,-0.9827,-0.1141,-0.1253,0.901,-5.346,-1.627
1772976490341.9907,-0.9841,-0.1148,-0.1238,1.05,-5.478,-1.759
1772976490341.9907,-0.9856,-0.1159,-0.1236,1.094,-5.355,-1.724
1772976490341.9907,-0.9864,-0.1139,-0.123,1.137,-5.381,-1.811
1772976490341.9907,-0.9855,-0.1175,-0.1205,1.137,-5.652,-1.505
1772976490341.9907,-0.9859,-0.1165,-0.1235,1.015,-5.565,-1.452
1772976490341.9907,-0.9833,-0.1168,-0.1244,1.304,-5.6,-1.627
1772976490341.9907,-0.9841,-0.1177,-0.1243,1.488,-5.661,-1.627
1772976490341.9907,-0.9837,-0.1163,-0.1207,1.636,-5.784,-1.654
1772976490341.9907,-0.9864,-0.1172,-0.1257,1.671,-5.539,-1.724
1772976490357.5117,-0.9815,-0.1183,-0.1248,1.619,-5.565,-1.584
1772976490357.5117,-0.9832,-0.1145,-0.1251,1.829,-5.53,-1.584
1772976490357.5117,-0.9848,-0.1149,-0.1237,1.75,-5.486,-1.347
1772976490357.5117,-0.9841,-0.1144,-0.1253,1.846,-5.749,-1.522
1772976490357.5117,-0.9841,-0.1162,-0.1255,1.846,-5.827,-1.54
1772976490357.5117,-0.9844,-0.1129,-0.1313,1.969,-5.924,-1.417
1772976490357.5117,-0.9827,-0.1145,-0.128,1.942,-5.985,-1.558
1772976490357.5117,-0.9843,-0.1154,-0.1285,1.89,-5.652,-1.575
1772976490357.5117,-0.9836,-0.1116,-0.1272,2.065,-5.897,-1.479
1772976490357.5117,-0.9841,-0.1145,-0.1284,2.056,-5.941,-1.54
1772976490357.5117,-0.9836,-0.1141,-0.1297,1.837,-5.854,-1.575
1772976490357.5117,-0.9838,-0.1108,-0.1276,2.004,-5.924,-1.645
1772976490357.5117,-0.9867,-0.1125,-0.1269,2.065,-5.626,-1.496
1772976490373.5405,-0.9831,-0.1116,-0.1276,1.986,-5.81,-1.444
1772976490373.5405,-0.9822,-0.1118,-0.1274,2.083,-6.134,-1.496
1772976490373.5405,-0.983,-0.1122,-0.1297,2.126,-5.775,-1.488
1772976490373.5405,-0.9801,-0.1094,-0.1297,1.995,-5.67,-1.654
1772976490373.5405,-0.9806,-0.1094,-0.1301,2.074,-5.661,-1.68
1772976490373.5405,-0.9814,-0.1106,-0.1315,2.083,-5.871,-1.558
1772976490373.5405,-0.9806,-0.1105,-0.1293,2.135,-6.037,-1.426
1772976490373.5405,-0.9809,-0.112,-0.1297,2.074,-5.924,-1.584
1772976490373.5405,-0.9808,-0.1118,-0.1299,2.047,-5.827,-1.531
1772976490373.5405,-0.9753,-0.1128,-0.1321,2.021,-5.88,-1.269
1772976490373.5405,-0.9772,-0.1111,-0.129,2.118,-6.064,-1.286
1772976490373.5405,-0.9786,-0.1117,-0.1319,2.249,-6.143,-1.391
1772976490373.5405,-0.9785,-0.1129,-0.1299,2.319,-5.959,-1.216
1772976490389.117,-0.9784,-0.1093,-0.1327,2.223,-5.714,-1.278
1772976490389.117,-0.9771,-0.1081,-0.1304,2.109,-5.836,-1.26
1772976490389.117,-0.9788,-0.1091,-0.1311,2.179,-5.968,-0.936
1772976490389.117,-0.979,-0.1083,-0.1291,2.152,-5.897,-1.032
1772976490389.117,-0.9782,-0.1083,-0.1312,1.96,-5.959,-0.858
1772976490389.117,-0.9784,-0.1083,-0.1309,2.074,-5.801,-1.094
1772976490389.117,-0.9792,-0.1097,-0.1316,2.152,-5.775,-0.989
1772976490389.117,-0.9771,-0.1099,-0.1284,1.96,-5.784,-1.094
1772976490389.117,-0.9762,-0.1055,-0.1306,2.047,-5.749,-0.858
1772976490389.117,-0.9783,-0.108,-0.1292,1.934,-5.906,-0.998
1772976490389.117,-0.9811,-0.1055,-0.1311,2.083,-5.871,-1.006
1772976490389.117,-0.9816,-0.1089,-0.1302,1.934,-5.53,-0.998
1772976490389.117,-0.9799,-0.1038,-0.1307,1.873,-5.548,-0.875
1772976490405.1523,-0.9803,-0.106,-0.131,2.021,-5.582,-0.744
1772976490405.1523,-0.9808,-0.1025,-0.1331,1.934,-5.635,-0.674
1772976490405.1523,-0.9805,-0.1026,-0.1318,1.802,-5.766,-0.656
1772976490405.1523,-0.9812,-0.1014,-0.1318,1.89,-5.442,-0.718
1772976490405.1523,-0.9793,-0.0996,-0.1336,1.724,-5.609,-0.998
1772976490405.1523,-0.9788,-0.1004,-0.1345,1.636,-5.749,-0.77
1772976490405.1523,-0.979,-0.0997,-0.1338,1.496,-5.74,-0.892
1772976490405.1523,-0.9809,-0.0987,-0.1342,1.61,-5.688,-0.787
1772976490405.1523,-0.9784,-0.0963,-0.1336,1.312,-5.74,-0.674
1772976490405.1523,-0.9805,-0.0938,-0.131,1.251,-5.775,-0.849
1772976490405.1523,-0.9786,-0.0949,-0.1307,1.444,-5.775,-0.726
1772976490405.1523,-0.978,-0.0948,-0.1313,1.155,-5.495,-0.919
1772976490405.1523,-0.977,-0.0942,-0.1291,1.181,-5.933,-0.709
1772976490420.668,-0.9771,-0.0939,-0.1304,1.242,-6.046,-0.919
1772976490420.668,-0.9771,-0.0943,-0.1313,1.076,-6.134,-0.971
1772976490420.668,-0.9772,-0.0952,-0.1285,1.076,-5.793,-1.234
1772976490420.668,-0.9765,-0.0952,-0.1302,1.05,-6.037,-1.321
1772976490420.668,-0.9749,-0.0925,-0.1285,0.963,-6.256,-1.278
1772976490420.668,-0.9753,-0.0934,-0.129,0.945,-6.134,-1.295
1772976490420.668,-0.9734,-0.0929,-0.1287,0.858,-6.143,-1.575
1772976490420.668,-0.9778,-0.0654,-0.1398,0.849,-6.072,-1.452
1772976490420.668,-0.9699,-0.094,-0.1151,1.566,-6.064,-1.627
1772976490420.668,-0.9731,-0.091,-0.1229,1.111,-5.95,-1.802
1772976490420.668,-0.9716,-0.1001,-0.1272,0.927,-6.16,-1.689
1772976490420.668,-0.9717,-0.099,-0.1228,1.085,-6.178,-2.021
1772976490436.7231,-0.9712,-0.0958,-0.1202,0.98,-6.195,-2.039
1772976490436.7231,-0.9744,-0.0772,-0.1329,0.63,-6.44,-1.873
1772976490436.7231,-0.9717,-0.0891,-0.126,1.111,-6.335,-2.275
1772976490436.7231,-0.9715,-0.1006,-0.1241,1.059,-6.247,-2.52
1772976490436.7231,-0.9695,-0.104,-0.1243,1.111,-6.274,-2.45
1772976490436.7231,-0.9681,-0.1041,-0.1213,1.015,-6.405,-2.397
1772976490436.7231,-0.97,-0.1018,-0.1242,0.779,-6.326,-2.257
1772976490436.7231,-0.9732,-0.1052,-0.1227,0.823,-6.3,-2.24
1772976490436.7231,-0.975,-0.1034,-0.1202,0.709,-6.414,-2.336
1772976490436.7231,-0.972,-0.1033,-0.1175,0.341,-6.554,-2.389
1772976490436.7231,-0.9713,-0.1018,-0.1211,0.236,-6.317,-1.864
1772976490436.7231,-0.9719,-0.0999,-0.1199,0.087,-6.353,-2.223
1772976490436.7231,-0.9728,-0.1028,-0.1175,0.367,-6.554,-2.406
1772976490451.9998,-0.9759,-0.0972,-0.1174,0.061,-6.423,-2.179
1772976490451.9998,-0.9759,-0.0982,-0.1146,0.14,-6.519,-2.231
1772976490451.9998,-0.9759,-0.0963,-0.1183,-0.009,-6.317,-2.091
1772976490451.9998,-0.9753,-0.0965,-0.1176,0.07,-6.029,-2.31
1772976490451.9998,-0.9778,-0.1014,-0.1165,0.219,-6.099,-2.389
1772976490451.9998,-0.9773,-0.1038,-0.1171,0.403,-6.23,-2.555
1772976490451.9998,-0.9798,-0.1028,-0.115,0.122,-6.064,-2.371
1772976490451.9998,-0.9762,-0.1033,-0.1152,0.534,-6.107,-2.319
1772976490451.9998,-0.9758,-0.106,-0.1148,0.472,-6.178,-2.144
1772976490451.9998,-0.9785,-0.1057,-0.1173,0.411,-5.827,-2.397
1772976490451.9998,-0.9775,-0.1071,-0.1145,0.184,-6.055,-2.415
1772976490451.9998,-0.9751,-0.1049,-0.1194,0.297,-6.169,-2.485
1772976490467.5002,-0.9794,-0.1044,-0.1188,0.42,-6.143,-2.45
1772976490467.5002,-0.9772,-0.1099,-0.1175,0.472,-6.029,-2.196
1772976490467.5002,-0.9793,-0.1116,-0.1188,0.087,-5.985,-2.152
1772976490467.5002,-0.9776,-0.1074,-0.1196,0.018,-6.151,-2.223
1772976490467.5002,-0.9785,-0.1101,-0.1167,0.306,-5.897,-2.196
1772976490467.5002,-0.9806,-0.1065,-0.1179,0.411,-6.204,-2.214
1772976490467.5002,-0.9801,-0.1099,-0.1162,0.455,-6.213,-2.047
1772976490467.5002,-0.9801,-0.1085,-0.1177,0.228,-6.221,-1.916
1772976490467.5002,-0.9825,-0.1106,-0.115,0.341,-6.046,-2.004
1772976490467.5002,-0.9812,-0.1076,-0.1171,0.297,-6.291,-1.89
1772976490467.5002,-0.9822,-0.1073,-0.1183,0.341,-6.379,-1.82
1772976490467.5002,-0.9842,-0.1106,-0.1172,0.324,-6.169,-1.986
1772976490467.5002,-0.983,-0.111,-0.1147,0.367,-6.309,-1.995
1772976490484.0303,-0.9858,-0.1128,-0.1139,0.359,-6.099,-1.706
1772976490484.0303,-0.9849,-0.1116,-0.1138,0.438,-6.134,-1.855
1772976490484.0303,-0.9883,-0.1086,-0.1144,0.516,-6.326,-1.942
1772976490484.0303,-0.9866,-0.1089,-0.1157,0.49,-6.125,-1.531
1772976490484.0303,-0.9866,-0.1103,-0.1143,0.516,-6.396,-1.715
1772976490484.0303,-0.9861,-0.1113,-0.1158,0.665,-6.204,-1.549
1772976490484.0303,-0.9855,-0.1127,-0.1168,0.682,-6.562,-1.671
1772976490484.0303,-0.9865,-0.1144,-0.1171,0.534,-6.379,-1.444
1772976490484.0303,-0.985,-0.1138,-0.1157,0.56,-6.431,-1.593
1772976490484.0303,-0.9859,-0.1136,-0.1193,0.718,-6.326,-1.522
1772976490484.0303,-0.9875,-0.1108,-0.1168,0.805,-6.431,-1.251
1772976490484.0303,-0.9853,-0.1161,-0.1177,0.971,-6.423,-1.251
1772976490484.0303,-0.9855,-0.1173,-0.1163,0.752,-6.457,-1.137
1772976490484.0303,-0.9898,-0.1144,-0.1163,0.849,-6.449,-1.26
1772976490500.0513,-0.987,-0.1131,-0.1175,0.936,-6.344,-1.514
1772976490500.0513,-0.987,-0.1153,-0.1146,1.19,-6.58,-1.26
1772976490500.0513,-0.9848,-0.1169,-0.1167,1.514,-6.886,-1.208
1772976490500.0513,-0.9893,-0.119,-0.1172,1.505,-6.431,-1.181
1772976490500.0513,-0.9864,-0.1186,-0.1168,1.33,-6.23,-1.181
1772976490500.0513,-0.9859,-0.1165,-0.1149,1.374,-6.379,-1.146
1772976490500.0513,-0.9859,-0.1159,-0.1171,1.435,-6.405,-1.26
1772976490500.0513,-0.9866,-0.1156,-0.1185,1.452,-6.274,-1.137
1772976490500.0513,-0.9873,-0.114,-0.1166,1.636,-6.361,-0.963
1772976490500.0513,-0.9843,-0.1143,-0.1167,1.558,-6.414,-1.041
1772976490500.0513,-0.9848,-0.1145,-0.1166,1.601,-6.239,-1.19
1772976490500.0513,-0.9844,-0.1139,-0.1174,1.671,-6.344,-1.111
1772976490500.0513,-0.9825,-0.1128,-0.1189,1.811,-6.291,-0.927
1772976490516.0747,-0.9837,-0.1108,-0.1196,1.846,-6.379,-0.971
1772976490516.0747,-0.9828,-0.1105,-0.1181,1.934,-6.554,-0.831
1772976490516.0747,-0.9838,-0.1091,-0.1214,2.17,-6.388,-0.84
1772976490516.0747,-0.9815,-0.1121,-0.1175,2.179,-6.589,-0.91
1772976490516.0747,-0.9843,-0.1113,-0.1183,2.231,-6.414,-0.945
1772976490516.0747,-0.9825,-0.1112,-0.1201,2.292,-6.335,-0.875
1772976490516.0747,-0.9832,-0.1115,-0.1172,2.433,-6.151,-0.971
1772976490516.0747,-0.9823,-0.1116,-0.118,2.336,-6.239,-0.744
1772976490516.0747,-0.982,-0.1096,-0.117,2.257,-6.414,-0.682
1772976490516.0747,-0.9801,-0.1112,-0.1204,2.301,-6.457,-0.516
1772976490516.0747,-0.9812,-0.1114,-0.1199,2.572,-6.256,-0.56
1772976490516.0747,-0.9813,-0.1095,-0.1219,2.459,-6.178,-0.507
1772976490532.1365,-0.9787,-0.1088,-0.1206,2.362,-6.388,-0.297
1772976490532.1365,-0.9804,-0.1089,-0.1205,2.52,-6.186,-0.131
1772976490532.1365,-0.9804,-0.1078,-0.1214,2.424,-6.143,-0.087
1772976490532.1365,-0.9815,-0.1074,-0.1244,2.625,-6.344,0.026
1772976490532.1365,-0.9811,-0.1061,-0.1231,2.634,-6.169,0.122
1772976490532.1365,-0.9794,-0.1058,-0.1205,2.555,-6.107,-0.009
1772976490532.1365,-0.9805,-0.1066,-0.1234,2.669,-6.029,-0.114
1772976490532.1365,-0.9809,-0.106,-0.1211,2.791,-6.011,0.018
1772976490532.1365,-0.9798,-0.1033,-0.1223,2.914,-5.95,-0.122
1772976490532.1365,-0.9809,-0.1036,-0.1214,2.861,-5.941,-0.044
1772976490532.1365,-0.9801,-0.1039,-0.1214,2.826,-5.801,-0.052
1772976490532.1365,-0.9816,-0.1019,-0.121,2.966,-6.046,-0.28
1772976490532.1365,-0.9811,-0.1018,-0.124,3.15,-5.749,-0.026
1772976490532.1365,-0.9805,-0.1032,-0.123,3.027,-5.793,0.122
1772976490548.1606,-0.9797,-0.1013,-0.1213,3.01,-5.95,0.193
1772976490548.1606,-0.9778,-0.101,-0.123,3.124,-5.959,-0.035
1772976490548.1606,-0.9778,-0.0998,-0.118,3.167,-5.889,0.114
1772976490548.1606,-0.9768,-0.1016,-0.1221,3.211,-6.134,-0.018
1772976490548.1606,-0.9749,-0.0997,-0.1227,3.421,-6.256,-0.166
1772976490548.1606,-0.9767,-0.0997,-0.1199,3.561,-6.204,0.035
1772976490548.1606,-0.9737,-0.1009,-0.1197,3.316,-6.178,-0.087
1772976490548.1606,-0.9766,-0.1,-0.1224,3.413,-6.282,-0.079
1772976490548.1606,-0.9751,-0.0988,-0.1226,3.518,-6.353,-0.035
1772976490548.1606,-0.9745,-0.0994,-0.1238,3.491,-6.37,0.061
1772976490548.1606,-0.9749,-0.0983,-0.1235,3.64,-6.466,-0.018
1772976490548.1606,-0.9761,-0.0975,-0.1256,3.596,-6.457,-0.166
1772976490563.6836,-0.9774,-0.097,-0.1213,3.272,-6.326,-0.228
1772976490563.6836,-0.9753,-0.0969,-0.1211,3.404,-6.107,-0.306
1772976490563.6836,-0.9764,-0.0975,-0.1224,3.509,-6.3,-0.28
1772976490563.6836,-0.9748,-0.0966,-0.1215,3.482,-6.405,-0.341
1772976490563.6836,-0.9752,-0.0958,-0.1218,3.386,-6.317,-0.35
1772976490563.6836,-0.9745,-0.0941,-0.125,3.395,-6.475,-0.219
1772976490563.6836,-0.9734,-0.096,-0.1261,3.255,-6.589,-0.35
1772976490563.6836,-0.9716,-0.0944,-0.1239,3.456,-6.554,-0.551
1772976490563.6836,-0.9704,-0.0963,-0.124,3.255,-6.309,-0.542
1772976490563.6836,-0.9727,-0.0953,-0.1249,3.08,-6.326,-0.507
1772976490563.6836,-0.9712,-0.0939,-0.1263,2.958,-6.659,-0.656
1772976490563.6836,-0.9738,-0.0936,-0.128,2.931,-6.615,-0.866
1772976490563.6836,-0.9704,-0.0923,-0.1252,2.958,-6.475,-1.032
1772976490579.7112,-0.9714,-0.0939,-0.1255,2.669,-6.291,-1.304
1772976490579.7112,-0.9722,-0.093,-0.1251,2.783,-6.081,-1.199
1772976490579.7112,-0.9731,-0.0931,-0.1254,2.809,-6.335,-1.216
1772976490579.7112,-0.9726,-0.0922,-0.1254,2.59,-6.081,-1.295
1772976490579.7112,-0.9722,-0.0919,-0.1265,2.45,-6.107,-1.566
1772976490579.7112,-0.9742,-0.0914,-0.1228,2.231,-6.134,-1.426
1772976490579.7112,-0.9736,-0.0913,-0.125,1.969,-6.029,-1.488
1772976490579.7112,-0.9739,-0.0884,-0.1218,2.161,-6.44,-1.663
1772976490579.7112,-0.9733,-0.0928,-0.1207,2.047,-6.475,-1.776
1772976490579.7112,-0.9729,-0.0925,-0.1242,2.021,-6.405,-1.881
1772976490579.7112,-0.9729,-0.0903,-0.1241,1.969,-6.274,-1.995
1772976490579.7112,-0.9742,-0.09,-0.1204,1.855,-6.414,-2.03
1772976490579.7112,-0.9734,-0.0907,-0.1243,1.732,-6.221,-1.978
1772976490595.7446,-0.9726,-0.0899,-0.1213,1.636,-5.766,-2.179
1772976490595.7446,-0.9731,-0.0928,-0.1249,1.47,-5.976,-2.214
1772976490595.7446,-0.9745,-0.0947,-0.1246,1.522,-5.766,-2.266
1772976490595.7446,-0.9715,-0.0933,-0.1238,1.269,-5.88,-2.564
1772976490595.7446,-0.9711,-0.0916,-0.1225,1.304,-5.933,-2.607
1772976490595.7446,-0.9722,-0.0927,-0.1217,1.015,-5.95,-2.441
1772976490595.7446,-0.9739,-0.0949,-0.1231,0.77,-5.81,-2.669
1772976490595.7446,-0.9731,-0.0959,-0.1235,0.998,-5.74,-2.572
1772976490595.7446,-0.9744,-0.0975,-0.1253,0.954,-5.933,-3.062
1772976490595.7446,-0.9736,-0.0939,-0.1252,1.032,-5.836,-2.686
1772976490595.7446,-0.9761,-0.0906,-0.1111,1.251,-6.011,-2.94
1772976490595.7446,-0.9775,-0.0778,-0.123,1.846,-5.862,-3.132
1772976490595.7446,-0.9754,-0.087,-0.1276,1.076,-5.994,-3.334
1772976490611.7703,-0.9734,-0.1001,-0.121,1.978,-5.819,-3.334
1772976490611.7703,-0.9753,-0.1061,-0.1245,1.951,-6.003,-3.281
1772976490611.7703,-0.9747,-0.1126,-0.116,1.584,-6.247,-3.5
1772976490611.7703,-0.9742,-0.1078,-0.1226,1.374,-6.107,-3.29
1772976490611.7703,-0.9761,-0.113,-0.1191,1.505,-5.862,-3.342
1772976490611.7703,-0.9769,-0.1154,-0.1221,1.4,-6.037,-3.351
1772976490611.7703,-0.9761,-0.1179,-0.1197,1.417,-6.256,-3.29
1772976490611.7703,-0.9791,-0.1175,-0.1205,1.461,-5.862,-2.931
1772976490611.7703,-0.9788,-0.115,-0.1211,1.181,-6.046,-2.984
1772976490611.7703,-0.9775,-0.1161,-0.1187,1.076,-5.976,-2.984
1772976490611.7703,-0.9784,-0.1166,-0.121,1.365,-5.95,-2.949
1772976490611.7703,-0.9776,-0.1194,-0.1158,1.024,-5.976,-2.888
1772976490611.7703,-0.9786,-0.1207,-0.1179,0.998,-6.09,-2.905
1772976490627.306,-0.9811,-0.1171,-0.1178,1.225,-5.775,-2.712
1772976490627.306,-0.9783,-0.1208,-0.1207,1.173,-5.775,-2.502
1772976490627.306,-0.9806,-0.1171,-0.1188,1.234,-5.635,-2.774
1772976490627.306,-0.9808,-0.119,-0.118,1.111,-5.897,-2.791
1772976490627.306,-0.9795,-0.1175,-0.1207,1.173,-5.696,-2.52
1772976490627.306,-0.9809,-0.1172,-0.119,1.242,-5.74,-2.371
1772976490627.306,-0.9803,-0.1149,-0.1186,1.286,-5.88,-2.257
1772976490627.306,-0.9809,-0.1147,-0.1226,1.199,-5.915,-2.152
1772976490627.306,-0.979,-0.1163,-0.1208,1.33,-5.714,-1.995
1772976490627.306,-0.978,-0.1164,-0.1201,1.584,-5.827,-2.223
1772976490627.306,-0.982,-0.1134,-0.1219,1.584,-5.469,-2.109
1772976490627.306,-0.9806,-0.1149,-0.1195,1.488,-5.775,-1.794
1772976490627.306,-0.9795,-0.1157,-0.1235,1.356,-5.556,-1.82
1772976490642.8374,-0.9804,-0.1162,-0.1231,1.488,-6.046,-1.776
1772976490642.8374,-0.9805,-0.1148,-0.1221,1.496,-6.151,-1.864
1772976490642.8374,-0.9788,-0.1136,-0.1209,1.654,-5.845,-1.593
1772976490642.8374,-0.9792,-0.1111,-0.1227,1.61,-5.688,-1.575
1772976490642.8374,-0.982,-0.1106,-0.1227,1.776,-6.125,-1.558
1772976490642.8374,-0.98,-0.1132,-0.1218,1.881,-5.985,-1.347
1772976490642.8374,-0.977,-0.1134,-0.1205,1.741,-5.88,-1.461
1772976490642.8374,-0.98,-0.1096,-0.1205,1.663,-5.871,-1.383
1772976490642.8374,-0.9811,-0.1098,-0.1237,1.907,-5.968,-1.208
1772976490642.8374,-0.9788,-0.1096,-0.1235,1.881,-5.827,-1.33
1772976490642.8374,-0.9808,-0.1108,-0.1216,1.741,-6.274,-1.33
1772976490642.8374,-0.9817,-0.1077,-0.1227,1.724,-5.976,-1.26
1772976490658.43,-0.9824,-0.1086,-0.1208,1.864,-6.099,-1.251
1772976490658.43,-0.9837,-0.1069,-0.1211,1.759,-5.941,-1.278
1772976490658.43,-0.9839,-0.1074,-0.1216,1.75,-5.976,-1.041
1772976490658.43,-0.9842,-0.1068,-0.1216,1.802,-6.178,-1.032
1772976490658.43,-0.9854,-0.1067,-0.1222,1.942,-6.326,-1.085
1772976490658.43,-0.9845,-0.1063,-0.1227,2.047,-6.405,-1.4
1772976490658.43,-0.9824,-0.1026,-0.1215,1.837,-5.889,-1.304
1772976490658.43,-0.9847,-0.1037,-0.1208,1.864,-6.291,-1.234
1772976490658.43,-0.9842,-0.1032,-0.1224,1.741,-6.178,-1.067
1772976490658.43,-0.9821,-0.103,-0.1211,1.846,-6.064,-1.181
1772976490658.43,-0.9811,-0.1039,-0.1226,1.776,-6.23,-0.998
1772976490658.43,-0.9811,-0.1052,-0.1249,1.855,-6.186,-0.98
1772976490658.43,-0.9825,-0.1061,-0.1241,1.864,-6.221,-0.927
1772976490673.9534,-0.9856,-0.1049,-0.1238,1.82,-6.414,-1.032
1772976490673.9534,-0.984,-0.1053,-0.1218,1.636,-6.353,-0.866
1772976490673.9534,-0.9815,-0.1063,-0.1235,1.689,-6.379,-0.989
1772976490673.9534,-0.983,-0.106,-0.1247,1.601,-6.589,-0.998
1772976490673.9534,-0.9836,-0.1016,-0.123,1.479,-6.326,-0.936
1772976490673.9534,-0.9848,-0.1008,-0.1202,1.199,-6.388,-0.945
1772976490673.9534,-0.9851,-0.1016,-0.1204,1.531,-6.449,-0.963
1772976490673.9534,-0.9844,-0.1012,-0.1224,1.627,-6.457,-0.647
1772976490673.9534,-0.9829,-0.1024,-0.1227,1.558,-6.466,-0.647
1772976490673.9534,-0.9833,-0.0999,-0.1208,1.304,-6.554,-0.647
1772976490673.9534,-0.9827,-0.1008,-0.1169,1.383,-6.79,-0.936
1772976490673.9534,-0.983,-0.0989,-0.1193,1.347,-6.659,-0.595
1772976490689.0996,-0.9802,-0.0988,-0.1183,1.417,-6.737,-0.805
1772976490689.0996,-0.9814,-0.0999,-0.12,1.584,-6.659,-0.866
1772976490689.0996,-0.9826,-0.1008,-0.1243,1.47,-6.65,-0.7
1772976490689.0996,-0.982,-0.0988,-0.1185,1.505,-6.58,-0.709
1772976490689.0996,-0.978,-0.0989,-0.1203,1.505,-6.589,-0.892
1772976490689.0996,-0.9805,-0.0988,-0.1206,1.444,-6.869,-0.875
1772976490689.0996,-0.9803,-0.0981,-0.1206,1.391,-7.035,-0.919
1772976490689.0996,-0.9794,-0.0979,-0.1207,1.426,-6.843,-1.015
1772976490689.0996,-0.9783,-0.0977,-0.1187,1.374,-6.668,-1.05
1772976490689.0996,-0.98,-0.0972,-0.1225,1.417,-6.834,-1.059
1772976490689.0996,-0.9794,-0.0957,-0.1222,1.347,-6.72,-0.84
1772976490689.0996,-0.9772,-0.096,-0.1222,1.584,-7.053,-1.129
1772976490689.0996,-0.9771,-0.091,-0.1215,1.916,-7.018,-1.251
1772976490704.4219,-0.9761,-0.0939,-0.1186,2.144,-7.245,-1.505
1772976490704.4219,-0.9765,-0.0953,-0.1202,1.619,-7.096,-1.636
1772976490704.4219,-0.9756,-0.1,-0.1227,1.654,-7.166,-1.636
1772976490704.4219,-0.9775,-0.1003,-0.1196,1.689,-7.245,-1.61
1772976490704.4219,-0.9759,-0.1002,-0.121,1.68,-7.254,-1.61
1772976490704.4219,-0.9748,-0.0992,-0.1208,1.759,-7.175,-1.654
1772976490704.4219,-0.974,-0.1053,-0.1212,1.584,-7.105,-1.619
1772976490704.4219,-0.9738,-0.1042,-0.125,1.505,-7.184,-1.54
1772976490704.4219,-0.9753,-0.1005,-0.1233,1.304,-7.324,-1.339
1772976490704.4219,-0.9728,-0.0961,-0.1228,1.312,-7.473,-1.225
1772976490704.4219,-0.9754,-0.0977,-0.1244,1.33,-7.122,-1.768
1772976490704.4219,-0.9761,-0.0963,-0.1216,1.312,-7.298,-1.645
1772976490704.4219,-0.9743,-0.0974,-0.1204,1.286,-7.254,-1.645
1772976490719.7385,-0.9733,-0.0955,-0.1196,1.208,-7.306,-1.829
1772976490719.7385,-0.9729,-0.0954,-0.1214,1.137,-7.28,-1.794
1772976490719.7385,-0.9741,-0.0966,-0.1189,1.242,-6.982,-1.846
1772976490719.7385,-0.972,-0.0951,-0.1208,1.12,-6.737,-1.978
1772976490719.7385,-0.9736,-0.0962,-0.1242,1.12,-6.843,-2.17
1772976490719.7385,-0.9759,-0.0955,-0.1205,1.05,-6.799,-1.986
1772976490719.7385,-0.9737,-0.0967,-0.121,1.032,-7.009,-2.284
1772976490719.7385,-0.9747,-0.0977,-0.1193,0.963,-6.912,-2.257
1772976490719.7385,-0.9737,-0.1008,-0.1149,0.849,-6.843,-2.091
1772976490719.7385,-0.9734,-0.0966,-0.1218,0.927,-6.65,-2.354
1772976490719.7385,-0.9704,-0.0991,-0.1194,0.936,-6.86,-2.301
1772976490719.7385,-0.9706,-0.1038,-0.1185,0.796,-6.781,-2.301
1772976490735.1934,-0.9734,-0.1054,-0.1179,0.814,-6.764,-2.494
1772976490735.1934,-0.9721,-0.1054,-0.1167,1.05,-6.799,-2.336
1772976490735.1934,-0.972,-0.1063,-0.1154,1.076,-6.711,-2.424
1772976490735.1934,-0.9734,-0.1018,-0.1146,1.024,-6.72,-2.03
1772976490735.1934,-0.9712,-0.1042,-0.1149,1.522,-6.633,-2.205
1772976490735.1934,-0.9723,-0.1058,-0.1136,1.094,-6.93,-2.24
1772976490735.1934,-0.971,-0.1052,-0.1163,1.339,-6.466,-2.284
1772976490735.1934,-0.9712,-0.1072,-0.1161,1.417,-6.204,-2.319
1772976490735.1934,-0.972,-0.1056,-0.1175,1.627,-6.519,-2.161
1772976490735.1934,-0.9706,-0.107,-0.1188,1.522,-6.799,-2.144
1772976490735.1934,-0.9737,-0.1071,-0.1165,1.566,-6.527,-2.266
1772976490735.1934,-0.9717,-0.1077,-0.1179,1.698,-6.554,-2.161
1772976490751.2258,-0.9735,-0.1081,-0.1174,1.715,-6.414,-2.135
1772976490751.2258,-0.9727,-0.1082,-0.1163,1.715,-6.186,-2.38
1772976490751.2258,-0.976,-0.1069,-0.116,1.768,-6.265,-2.074
1772976490751.2258,-0.9765,-0.1102,-0.1189,1.995,-6.344,-2.231
1772976490751.2258,-0.9727,-0.1113,-0.1191,1.907,-6.344,-2.214
1772976490751.2258,-0.9765,-0.1094,-0.119,1.978,-6.379,-2.021
1772976490751.2258,-0.9758,-0.1096,-0.1191,1.925,-6.247,-1.907
1772976490751.2258,-0.9766,-0.1097,-0.1219,2.126,-6.213,-1.916
1772976490751.2258,-0.9772,-0.1088,-0.1218,1.864,-6.195,-1.89
1772976490751.2258,-0.9784,-0.108,-0.1219,1.776,-6.466,-1.864
1772976490751.2258,-0.979,-0.1099,-0.1227,1.855,-6.379,-2.039
1772976490751.2258,-0.9763,-0.1117,-0.1194,1.768,-6.204,-1.934
1772976490751.2258,-0.9766,-0.1082,-0.1219,1.654,-6.143,-1.802
1772976490767.2534,-0.9799,-0.1094,-0.1222,1.846,-6.405,-1.776
1772976490767.2534,-0.9803,-0.1074,-0.124,1.619,-6.213,-1.68
1772976490767.2534,-0.9819,-0.1058,-0.1223,1.479,-5.985,-1.706
1772976490767.2534,-0.9826,-0.1085,-0.1241,1.566,-6.274,-1.601
1772976490767.2534,-0.985,-0.1064,-0.1235,1.698,-6.09,-1.645
1772976490767.2534,-0.9844,-0.1067,-0.1227,1.514,-6.23,-1.741
1772976490767.2534,-0.9822,-0.1079,-0.1257,1.549,-6.388,-1.531
1772976490767.2534,-0.9831,-0.1071,-0.123,1.242,-6.186,-1.339
1772976490767.2534,-0.9837,-0.1046,-0.1231,0.945,-6.02,-1.347
1772976490767.2534,-0.987,-0.1053,-0.1208,1.12,-6.317,-1.295
1772976490767.2534,-0.9887,-0.1106,-0.1222,1.067,-6.326,-1.505
1772976490767.2534,-0.9903,-0.1072,-0.1202,1.26,-6.256,-1.663
1772976490767.2534,-0.9883,-0.1057,-0.1222,1.339,-6.519,-1.4
1772976490782.6387,-0.991,-0.1046,-0.1219,1.173,-6.659,-1.374
1772976490782.6387,-0.9933,-0.1055,-0.1204,1.05,-6.344,-1.33
1772976490782.6387,-0.9912,-0.1078,-0.1202,1.339,-6.335,-1.391
1772976490782.6387,-0.9916,-0.1079,-0.1218,1.278,-6.344,-1.137
1772976490782.6387,-0.9931,-0.1063,-0.1207,1.216,-6.633,-1.286
1772976490782.6387,-0.9921,-0.1078,-0.1191,1.321,-6.396,-1.251
1772976490782.6387,-0.9909,-0.108,-0.1199,1.129,-6.361,-1.129
1772976490782.6387,-0.9938,-0.1075,-0.1219,1.242,-6.431,-1.059
1772976490782.6387,-0.9929,-0.1075,-0.1206,1.54,-6.755,-1.032
1772976490782.6387,-0.993,-0.1089,-0.1208,1.321,-6.668,-0.954
1772976490782.6387,-0.9948,-0.1071,-0.1188,1.347,-6.764,-0.892
1772976490782.6387,-0.9916,-0.1075,-0.1194,1.383,-6.685,-1.041
1772976490782.6387,-0.9916,-0.1051,-0.1218,1.558,-6.843,-0.98
1772976490798.1628,-0.9915,-0.1082,-0.119,1.627,-7.254,-0.892
1772976490798.1628,-0.9894,-0.1088,-0.1192,1.75,-7.053,-0.779
1772976490798.1628,-0.9903,-0.1062,-0.1174,1.654,-6.843,-0.858
1772976490798.1628,-0.993,-0.1035,-0.1157,2.118,-6.86,-0.892
1772976490798.1628,-0.9885,-0.1047,-0.1146,2.433,-6.816,-0.84
1772976490798.1628,-0.9907,-0.1044,-0.1125,2.257,-6.982,-0.779
1772976490798.1628,-0.9914,-0.1046,-0.1146,2.188,-7.07,-0.98
1772976490798.1628,-0.9905,-0.1064,-0.1164,2.249,-7.131,-1.155
1772976490798.1628,-0.9883,-0.1093,-0.1179,2.371,-7.018,-1.041
1772976490798.1628,-0.987,-0.1105,-0.115,2.485,-7.009,-0.665
1772976490798.1628,-0.9897,-0.1064,-0.118,2.415,-6.904,-0.849
1772976490798.1628,-0.9868,-0.1053,-0.1172,2.678,-6.956,-1.208
1772976490814.2363,-0.9866,-0.1074,-0.1157,2.52,-6.86,-1.234
1772976490814.2363,-0.9877,-0.1085,-0.118,2.415,-7.289,-1.278
1772976490814.2363,-0.985,-0.1063,-0.116,2.345,-7.009,-1.067
1772976490814.2363,-0.9837,-0.1053,-0.1163,2.362,-6.799,-1.19
1772976490814.2363,-0.9838,-0.104,-0.1164,2.223,-6.912,-1.085
1772976490814.2363,-0.9856,-0.1033,-0.1187,2.38,-7.079,-1.365
1772976490814.2363,-0.9825,-0.1043,-0.1185,2.467,-7.009,-1.645
1772976490814.2363,-0.9812,-0.1028,-0.1172,2.214,-6.834,-1.383
1772976490814.2363,-0.9801,-0.1058,-0.1141,2.292,-6.878,-1.312
1772976490814.2363,-0.9787,-0.1052,-0.1156,2.415,-7.0,-1.347
1772976490814.2363,-0.9768,-0.1033,-0.1164,2.047,-6.93,-1.347
1772976490814.2363,-0.9785,-0.1031,-0.1179,1.96,-6.685,-1.251
1772976490814.2363,-0.9784,-0.1021,-0.113,2.109,-6.72,-1.225
1772976490829.7595,-0.9806,-0.097,-0.1138,2.152,-6.851,-1.33
1772976490829.7595,-0.9742,-0.0927,-0.1137,2.511,-6.606,-1.269
1772976490829.7595,-0.9786,-0.0989,-0.1121,2.38,-6.755,-1.365
1772976490829.7595,-0.9778,-0.0998,-0.1161,2.328,-6.58,-1.558
1772976490829.7595,-0.9764,-0.1,-0.117,2.721,-6.676,-1.409
1772976490829.7595,-0.9763,-0.0986,-0.1136,2.467,-6.58,-1.312
1772976490829.7595,-0.9731,-0.0991,-0.114,2.319,-6.808,-1.671
1772976490829.7595,-0.9724,-0.0985,-0.1173,2.328,-6.799,-1.663
1772976490829.7595,-0.9704,-0.1002,-0.1174,2.66,-6.624,-1.654
1772976490829.7595,-0.9701,-0.0981,-0.1166,2.616,-6.501,-1.715
1772976490829.7595,-0.9716,-0.0981,-0.1172,2.52,-6.589,-1.68
1772976490829.7595,-0.9705,-0.0976,-0.1166,2.555,-6.527,-1.794
1772976490829.7595,-0.97,-0.0958,-0.1147,2.476,-6.755,-1.768
1772976490844.8862,-0.9676,-0.099,-0.115,2.502,-6.808,-1.873
1772976490844.8862,-0.9668,-0.1001,-0.1177,2.599,-6.702,-2.135
1772976490844.8862,-0.9636,-0.1019,-0.117,2.616,-6.799,-1.995
1772976490844.8862,-0.9655,-0.0989,-0.1192,2.502,-6.676,-2.196
1772976490844.8862,-0.9649,-0.096,-0.1194,2.625,-6.685,-2.205
1772976490844.8862,-0.9655,-0.0958,-0.1196,2.494,-6.659,-2.144
1772976490844.8862,-0.9651,-0.0953,-0.1215,2.572,-6.79,-2.161
1772976490844.8862,-0.9652,-0.0982,-0.12,2.669,-6.825,-2.319
1772976490844.8862,-0.9667,-0.0975,-0.1179,2.494,-6.659,-2.161
1772976490844.8862,-0.9664,-0.0966,-0.1199,2.415,-6.536,-2.441
1772976490844.8862,-0.9661,-0.0992,-0.1189,2.257,-6.685,-2.459
1772976490844.8862,-0.9645,-0.1019,-0.1185,2.161,-6.886,-2.406
1772976490860.96,-0.9653,-0.0998,-0.1196,2.074,-6.527,-2.511
1772976490860.96,-0.964,-0.0983,-0.119,2.013,-6.178,-2.354
1772976490860.96,-0.9671,-0.1006,-0.1182,1.768,-6.571,-2.31
1772976490860.96,-0.9678,-0.1001,-0.1179,1.627,-6.615,-2.607
1772976490860.96,-0.9686,-0.0984,-0.1156,1.584,-6.353,-2.459
1772976490860.96,-0.9705,-0.098,-0.1141,1.426,-6.37,-2.467
1772976490860.96,-0.9695,-0.0971,-0.1166,1.356,-6.361,-2.476
1772976490860.96,-0.9709,-0.0982,-0.115,1.278,-6.44,-2.319
1772976490860.96,-0.9743,-0.0971,-0.116,1.479,-6.414,-2.424
1772976490860.96,-0.9764,-0.0962,-0.1183,1.155,-6.335,-2.223
1772976490860.96,-0.9759,-0.0952,-0.1182,1.164,-6.265,-2.17
1772976490860.96,-0.98,-0.0962,-0.1193,1.137,-6.23,-2.205
1772976490860.96,-0.9767,-0.0953,-0.1163,1.199,-6.204,-2.45
1772976490876.5103,-0.9792,-0.0932,-0.117,1.173,-6.405,-2.354
1772976490876.5103,-0.9822,-0.0938,-0.1177,1.111,-6.151,-2.144
1772976490876.5103,-0.9806,-0.0977,-0.1205,1.015,-6.134,-2.31
1772976490876.5103,-0.9795,-0.0969,-0.1207,1.304,-6.003,-2.362
1772976490876.5103,-0.9828,-0.0969,-0.1202,1.094,-6.099,-2.31
1772976490876.5103,-0.9835,-0.0966,-0.1191,1.129,-5.897,-2.301
1772976490876.5103,-0.9839,-0.0966,-0.1175,0.954,-5.968,-2.328
1772976490876.5103,-0.9824,-0.0988,-0.1181,0.831,-6.125,-2.572
1772976490876.5103,-0.9832,-0.0974,-0.1205,1.059,-6.221,-2.669
1772976490876.5103,-0.9846,-0.1012,-0.1178,0.919,-6.274,-2.502
1772976490876.5103,-0.9894,-0.1007,-0.1143,0.875,-6.003,-2.572
1772976490876.5103,-0.9869,-0.1047,-0.1166,0.84,-6.134,-2.669
1772976490876.5103,-0.9892,-0.1007,-0.1132,0.91,-6.239,-2.581
1772976490893.037,-0.9925,-0.1046,-0.1159,0.884,-6.265,-2.712
1772976490893.037,-0.9925,-0.1028,-0.1127,1.242,-6.037,-2.835
1772976490893.037,-0.9916,-0.1055,-0.1138,0.805,-6.064,-2.643
1772976490893.037,-0.9947,-0.1066,-0.1144,0.831,-6.107,-2.712
1772976490893.037,-0.9923,-0.1066,-0.1095,1.067,-6.072,-2.958
1772976490893.037,-0.9928,-0.1075,-0.1099,0.954,-6.029,-2.844
1772976490893.037,-0.9938,-0.1075,-0.1094,0.963,-6.003,-2.87
1772976490893.037,-0.9914,-0.1082,-0.1082,0.823,-5.994,-2.66
1772976490893.037,-0.9905,-0.1077,-0.1106,0.98,-5.933,-2.485
1772976490893.037,-0.9873,-0.1093,-0.1072,0.866,-5.968,-2.397
1772976490893.037,-0.9892,-0.1078,-0.1071,0.674,-5.661,-2.52
1772976490893.037,-0.9866,-0.1098,-0.1078,0.998,-5.924,-2.616
1772976490893.037,-0.9856,-0.1104,-0.1095,1.006,-6.046,-2.651
1772976490908.7288,-0.9866,-0.1086,-0.1072,1.024,-5.924,-2.616
1772976490908.7288,-0.9841,-0.1109,-0.1048,1.015,-5.968,-2.485
1772976490908.7288,-0.9854,-0.1138,-0.108,1.067,-5.836,-2.336
1772976490908.7288,-0.9834,-0.1158,-0.1074,1.164,-5.871,-2.494
1772976490908.7288,-0.9828,-0.1151,-0.1053,1.164,-5.88,-2.336
1772976490908.7288,-0.9814,-0.1155,-0.1046,1.312,-6.099,-2.354
1772976490908.7288,-0.9793,-0.1157,-0.1075,1.374,-5.696,-2.083
1772976490908.7288,-0.9783,-0.1166,-0.1064,1.584,-6.011,-1.829
1772976490908.7288,-0.9784,-0.1204,-0.1071,1.531,-6.195,-1.855
1772976490908.7288,-0.9793,-0.1181,-0.1099,1.575,-5.941,-1.636
1772976490908.7288,-0.9795,-0.1185,-0.1101,1.663,-6.247,-1.584
1772976490908.7288,-0.9766,-0.1157,-0.1103,1.75,-6.09,-1.54
1772976490908.7288,-0.9794,-0.1144,-0.1133,1.82,-6.151,-1.347
1772976490924.815,-0.9776,-0.1148,-0.115,1.663,-6.379,-1.173
1772976490924.815,-0.9762,-0.1111,-0.116,1.593,-6.457,-1.216
1772976490924.815,-0.9753,-0.1105,-0.1175,1.698,-6.72,-0.936
1772976490924.815,-0.9768,-0.1111,-0.1138,1.732,-6.834,-0.98
1772976490924.815,-0.9756,-0.1093,-0.1158,1.645,-6.729,-0.735
1772976490924.815,-0.9794,-0.1069,-0.1165,1.68,-6.58,-0.604
1772976490924.815,-0.975,-0.1067,-0.1166,1.689,-6.93,-0.455
1772976490924.815,-0.978,-0.1012,-0.1162,1.627,-7.289,-0.63
1772976490924.815,-0.9769,-0.1017,-0.116,1.846,-7.263,-0.823
1772976490924.815,-0.9799,-0.1017,-0.115,1.978,-7.332,-0.814
1772976490924.815,-0.9809,-0.1053,-0.114,1.907,-7.201,-0.927
1772976490924.815,-0.979,-0.1038,-0.1107,2.161,-7.236,-0.945
1772976490924.815,-0.9753,-0.1042,-0.1099,2.065,-7.271,-0.849
1772976490940.4,-0.9775,-0.1028,-0.1125,2.047,-7.245,-0.901
1772976490940.4,-0.9773,-0.1019,-0.1136,1.951,-7.473,-0.91
1772976490940.4,-0.9764,-0.101,-0.113,2.292,-7.324,-1.19
1772976490940.4,-0.9772,-0.1021,-0.1107,2.459,-7.219,-1.409
1772976490940.4,-0.9791,-0.1006,-0.1127,2.643,-7.254,-1.54
1772976490940.4,-0.9773,-0.1015,-0.1125,2.669,-7.157,-1.444
1772976490940.4,-0.9782,-0.1008,-0.112,2.678,-6.974,-1.356
1772976490940.4,-0.9775,-0.0992,-0.1112,2.712,-6.737,-1.663
1772976490940.4,-0.978,-0.0991,-0.1109,2.896,-6.878,-2.004
1772976490940.4,-0.9765,-0.0996,-0.1113,2.853,-6.895,-2.004
1772976490940.4,-0.9767,-0.1008,-0.1104,2.686,-6.466,-2.013
1772976490940.4,-0.9776,-0.1033,-0.1135,2.616,-6.527,-2.118
1772976490955.9282,-0.9771,-0.1041,-0.1113,2.783,-6.598,-2.476
1772976490955.9282,-0.9761,-0.1048,-0.1119,2.756,-6.484,-2.406
1772976490955.9282,-0.9748,-0.103,-0.1138,2.8,-6.51,-2.45
1772976490955.9282,-0.9765,-0.1036,-0.1155,2.511,-6.213,-2.52
1772976490955.9282,-0.9777,-0.1045,-0.1139,2.564,-6.213,-2.572
1772976490955.9282,-0.9775,-0.1006,-0.1115,2.538,-6.37,-2.809
1772976490955.9282,-0.9786,-0.1025,-0.1102,2.31,-6.388,-2.678
1772976490955.9282,-0.9788,-0.1024,-0.1105,2.179,-6.554,-2.599
1772976490955.9282,-0.9773,-0.1038,-0.1095,2.292,-6.282,-2.494
1772976490955.9282,-0.9765,-0.1046,-0.1098,2.223,-5.924,-2.572
1772976490955.9282,-0.9773,-0.1057,-0.1145,2.126,-6.003,-2.66
1772976490955.9282,-0.9737,-0.1028,-0.113,2.118,-6.099,-2.59
1772976490955.9282,-0.972,-0.1032,-0.1111,1.96,-6.134,-2.406
1772976490971.9553,-0.9731,-0.1022,-0.1093,1.846,-5.81,-2.249
1772976490971.9553,-0.9726,-0.1026,-0.1113,1.811,-5.959,-2.266
1772976490971.9553,-0.9711,-0.1015,-0.112,1.811,-6.011,-2.021
1772976490971.9553,-0.9722,-0.1013,-0.113,1.785,-5.696,-2.196
1772976490971.9553,-0.9721,-0.0994,-0.1107,1.75,-6.02,-1.995
1772976490971.9553,-0.9749,-0.1015,-0.1094,1.776,-5.915,-1.969
1772976490971.9553,-0.9729,-0.1036,-0.1119,1.689,-5.915,-1.951
1772976490971.9553,-0.9754,-0.1049,-0.1114,1.741,-5.784,-1.89
1772976490971.9553,-0.9748,-0.1064,-0.1086,1.873,-5.871,-1.986
1772976490971.9553,-0.9768,-0.1042,-0.1097,1.663,-5.714,-2.144
1772976490971.9553,-0.9763,-0.1032,-0.1096,1.811,-5.793,-2.118
1772976490971.9553,-0.9773,-0.1062,-0.1075,2.047,-5.731,-2.065
1772976490971.9553,-0.9776,-0.1057,-0.1071,2.354,-5.731,-1.995
1772976490987.9795,-0.9773,-0.1055,-0.1096,2.1,-5.705,-1.899
1772976490987.9795,-0.9768,-0.1077,-0.1119,2.266,-5.626,-1.549
1772976490987.9795,-0.9753,-0.1096,-0.1123,2.249,-5.723,-1.549
1772976490987.9795,-0.9782,-0.1088,-0.1126,2.24,-5.451,-1.689
1772976490987.9795,-0.9759,-0.1116,-0.1145,2.389,-5.539,-1.855
1772976490987.9795,-0.975,-0.1098,-0.1163,2.17,-5.495,-1.873
1772976490987.9795,-0.9765,-0.1104,-0.1172,2.118,-5.696,-1.663
1772976490987.9795,-0.9773,-0.1078,-0.1175,2.179,-6.011,-1.636
1772976490987.9795,-0.9798,-0.1075,-0.1183,1.942,-5.827,-1.409
1772976490987.9795,-0.9789,-0.1091,-0.1152,1.837,-5.95,-1.234
1772976490987.9795,-0.9811,-0.1077,-0.1131,2.047,-6.011,-1.225
1772976490987.9795,-0.9826,-0.1082,-0.1163,1.978,-5.985,-1.417
1772976490987.9795,-0.9814,-0.1078,-0.1184,2.1,-6.02,-1.312
1772976491004.013,-0.9835,-0.1075,-0.1163,2.056,-5.985,-1.417
1772976491004.013,-0.9836,-0.1057,-0.116,2.319,-5.924,-1.619
1772976491004.013,-0.9834,-0.1077,-0.117,2.091,-5.976,-1.435
1772976491004.013,-0.9842,-0.1091,-0.1197,1.873,-6.003,-1.242
1772976491004.013,-0.9871,-0.1096,-0.1178,2.004,-6.309,-1.347
1772976491004.013,-0.9884,-0.1084,-0.117,2.126,-6.116,-1.356
1772976491004.013,-0.9873,-0.1072,-0.1182,2.152,-5.906,-1.409
1772976491004.013,-0.9878,-0.1089,-0.1196,2.249,-6.02,-1.383
1772976491004.013,-0.9898,-0.1064,-0.1196,2.196,-6.353,-1.575
1772976491004.013,-0.9893,-0.1068,-0.1227,2.135,-6.344,-1.75
1772976491004.013,-0.989,-0.1077,-0.1213,2.31,-6.072,-1.671
1772976491004.013,-0.9896,-0.1074,-0.1232,2.179,-6.274,-1.575
1772976491004.013,-0.9871,-0.1076,-0.1237,2.188,-6.204,-1.321
1772976491019.945,-0.9884,-0.108,-0.1227,2.144,-6.186,-1.181
1772976491019.945,-0.9905,-0.107,-0.1278,2.013,-6.527,-1.558
1772976491019.945,-0.9882,-0.1065,-0.1268,1.96,-6.388,-1.689
1772976491019.945,-0.9894,-0.1058,-0.125,2.266,-6.379,-1.768
1772976491019.945,-0.99,-0.1069,-0.1279,2.354,-6.562,-1.873
1772976491019.945,-0.9889,-0.105,-0.1259,2.179,-6.624,-1.802
1772976491019.945,-0.9878,-0.1058,-0.1297,2.284,-6.606,-1.627
1772976491019.945,-0.9871,-0.106,-0.1282,2.179,-6.746,-1.654
1772976491019.945,-0.9896,-0.1052,-0.1307,2.126,-6.904,-1.706
1772976491019.945,-0.9909,-0.1049,-0.1257,2.126,-6.816,-1.671
1772976491019.945,-0.9884,-0.1061,-0.1296,2.013,-7.061,-2.1
1772976491019.945,-0.9889,-0.1065,-0.1285,2.223,-6.912,-1.907
1772976491019.945,-0.9909,-0.1054,-0.1266,2.196,-7.053,-1.934
1772976491035.3223,-0.9878,-0.1076,-0.1278,2.179,-7.157,-1.829
1772976491035.3223,-0.9892,-0.1036,-0.1249,2.135,-6.965,-1.942
1772976491035.3223,-0.9891,-0.1066,-0.1248,2.065,-7.131,-2.004
1772976491035.3223,-0.9878,-0.1057,-0.1244,2.188,-7.114,-2.24
1772976491035.3223,-0.9851,-0.1081,-0.1251,2.319,-7.271,-2.126
1772976491035.3223,-0.9877,-0.1077,-0.1205,2.223,-6.974,-2.074
1772976491035.3223,-0.9866,-0.109,-0.1229,2.319,-6.93,-2.056
1772976491035.3223,-0.9856,-0.1081,-0.1213,2.214,-7.044,-2.205
1772976491035.3223,-0.985,-0.1069,-0.1174,2.17,-7.026,-2.284
1772976491035.3223,-0.9872,-0.1063,-0.1182,2.371,-6.869,-2.188
1772976491035.3223,-0.9844,-0.1058,-0.1171,2.231,-6.956,-2.301
1772976491035.3223,-0.9843,-0.1072,-0.1173,2.38,-6.729,-2.371
1772976491050.846,-0.9816,-0.106,-0.1194,2.485,-6.615,-2.328
1772976491050.846,-0.9819,-0.1069,-0.1198,2.52,-6.685,-2.292
1772976491050.846,-0.9801,-0.1055,-0.118,2.38,-6.65,-2.24
1772976491050.846,-0.9803,-0.1069,-0.1183,2.389,-6.51,-2.441
1772976491050.846,-0.9801,-0.1052,-0.1154,2.651,-6.3,-2.257
1772976491050.846,-0.9799,-0.1055,-0.1155,2.704,-6.204,-2.074
1772976491050.846,-0.9801,-0.1024,-0.1178,2.52,-6.335,-2.214
1772976491050.846,-0.9818,-0.0991,-0.1132,3.019,-6.396,-2.257
1772976491050.846,-0.9792,-0.1001,-0.1143,3.159,-6.501,-2.433
1772976491050.846,-0.9811,-0.0993,-0.1148,3.062,-6.326,-2.397
1772976491050.846,-0.9803,-0.0999,-0.1124,3.185,-6.23,-2.433
1772976491050.846,-0.9792,-0.1028,-0.1138,3.439,-6.003,-2.433
1772976491050.846,-0.9792,-0.1103,-0.1133,3.255,-5.985,-2.415
1772976491065.8738,-0.9783,-0.113,-0.1152,3.176,-6.064,-2.599
1772976491065.8738,-0.9794,-0.1107,-0.1162,3.124,-5.941,-2.616
1772976491065.8738,-0.9808,-0.1113,-0.1143,3.062,-5.906,-2.748
1772976491065.8738,-0.98,-0.1126,-0.1144,3.124,-5.854,-2.73
1772976491065.8738,-0.9818,-0.1092,-0.1154,2.966,-5.617,-2.529
1772976491065.8738,-0.9788,-0.1072,-0.1118,3.001,-5.661,-2.17
1772976491065.8738,-0.9793,-0.1047,-0.1103,2.87,-5.731,-2.424
1772976491065.8738,-0.9806,-0.1044,-0.1129,2.791,-5.731,-2.607
1772976491065.8738,-0.981,-0.1026,-0.1128,2.922,-5.6,-2.415
1772976491065.8738,-0.9795,-0.1044,-0.1117,2.739,-5.591,-2.406
1772976491065.8738,-0.9778,-0.1042,-0.1157,2.721,-5.469,-2.467
1772976491065.8738,-0.9817,-0.1049,-0.1112,3.115,-5.46,-2.572
1772976491081.9497,-0.9814,-0.1009,-0.1127,3.089,-5.303,-2.564
1772976491081.9497,-0.9781,-0.1016,-0.1105,2.896,-5.556,-2.433
1772976491081.9497,-0.9777,-0.1016,-0.1118,2.695,-5.53,-2.607
1772976491081.9497,-0.9785,-0.1014,-0.1125,2.599,-5.407,-2.441
1772976491081.9497,-0.9769,-0.1008,-0.1142,2.572,-5.556,-2.546
1772976491081.9497,-0.9778,-0.1016,-0.1149,2.581,-5.46,-2.502
1772976491081.9497,-0.9767,-0.1,-0.1141,2.538,-5.416,-2.275
1772976491081.9497,-0.9796,-0.099,-0.1135,2.476,-5.338,-2.546
1772976491081.9497,-0.979,-0.0978,-0.11,2.485,-5.565,-2.161
1772976491081.9497,-0.9787,-0.0986,-0.1139,2.572,-5.504,-2.275
1772976491081.9497,-0.9781,-0.0992,-0.1148,2.406,-5.486,-2.371
1772976491081.9497,-0.9768,-0.0986,-0.1143,2.397,-5.6,-2.424
1772976491081.9497,-0.9792,-0.0954,-0.1166,2.38,-5.521,-2.266
1772976491097.9854,-0.98,-0.0939,-0.1105,2.546,-5.425,-2.328
1772976491097.9854,-0.9767,-0.0969,-0.1097,2.765,-5.355,-2.529
1772976491097.9854,-0.9788,-0.0975,-0.1098,2.853,-5.626,-2.538
1772976491097.9854,-0.9781,-0.0989,-0.1108,2.669,-5.679,-2.45
1772976491097.9854,-0.9786,-0.0982,-0.1097,2.494,-5.74,-2.389
1772976491097.9854,-0.9784,-0.1006,-0.1116,2.66,-5.819,-2.397
1772976491097.9854,-0.9773,-0.1014,-0.1116,2.441,-5.679,-2.476
1772976491097.9854,-0.9776,-0.1024,-0.1138,2.59,-5.758,-2.319
1772976491097.9854,-0.9772,-0.1057,-0.1111,2.748,-5.749,-2.109
1772976491097.9854,-0.9803,-0.1053,-0.1099,2.704,-6.003,-2.223
1772976491097.9854,-0.9797,-0.1037,-0.1102,2.581,-6.143,-2.24
1772976491097.9854,-0.9764,-0.1045,-0.1119,2.476,-6.204,-2.17
1772976491097.9854,-0.9758,-0.1072,-0.1075,2.581,-6.064,-2.1
1772976491114.5164,-0.9765,-0.1071,-0.1083,2.424,-6.169,-2.047
1772976491114.5164,-0.978,-0.1056,-0.1081,2.433,-6.291,-1.96
1772976491114.5164,-0.9765,-0.103,-0.1077,2.362,-6.204,-1.794
1772976491114.5164,-0.9791,-0.1025,-0.1105,2.459,-6.09,-1.925
1772976491114.5164,-0.9773,-0.0973,-0.1133,2.476,-6.186,-1.584
1772976491114.5164,-0.9751,-0.1054,-0.1067,2.397,-6.317,-1.383
1772976491114.5164,-0.9765,-0.1012,-0.1098,2.31,-6.536,-1.549
1772976491114.5164,-0.976,-0.1032,-0.1092,2.397,-6.317,-1.601
1772976491114.5164,-0.9742,-0.1063,-0.1097,2.502,-6.344,-1.593
1772976491114.5164,-0.9721,-0.103,-0.1089,2.231,-6.221,-1.435
1772976491114.5164,-0.9739,-0.1033,-0.1111,2.284,-6.562,-1.4
1772976491114.5164,-0.9708,-0.1038,-0.1086,1.925,-6.606,-1.216
1772976491114.5164,-0.9736,-0.1028,-0.1088,2.047,-6.571,-1.19
1772976491130.5413,-0.972,-0.1047,-0.1098,2.144,-6.335,-1.4
1772976491130.5413,-0.9712,-0.1028,-0.1108,1.978,-6.501,-1.347
1772976491130.5413,-0.9724,-0.1033,-0.1081,1.934,-6.641,-1.339
1772976491130.5413,-0.9749,-0.1036,-0.1083,1.741,-6.702,-1.146
1772976491130.5413,-0.9744,-0.1012,-0.1064,1.741,-6.466,-1.067
1772976491130.5413,-0.9756,-0.1013,-0.1072,1.776,-6.545,-0.954
1772976491130.5413,-0.973,-0.0992,-0.1062,1.732,-6.414,-1.015
1772976491130.5413,-0.9736,-0.1,-0.1131,1.907,-6.492,-1.146
1772976491130.5413,-0.9726,-0.1021,-0.1106,1.732,-6.326,-0.858
1772976491130.5413,-0.9734,-0.1044,-0.1085,1.531,-6.317,-0.735
1772976491130.5413,-0.9755,-0.1025,-0.1077,1.383,-6.055,-0.831
1772976491130.5413,-0.9757,-0.1024,-0.1112,1.488,-6.134,-0.945
1772976491130.5413,-0.9736,-0.1033,-0.1105,1.452,-6.379,-0.604
1772976491130.5413,-0.9745,-0.103,-0.1136,1.251,-6.195,-0.919
1772976491146.108,-0.975,-0.1022,-0.11,1.155,-6.046,-0.682
1772976491146.108,-0.9748,-0.1004,-0.1066,1.146,-6.003,-0.998
1772976491146.108,-0.9743,-0.1011,-0.113,1.365,-6.169,-1.076
1772976491146.108,-0.9754,-0.1009,-0.1119,1.409,-6.099,-0.814
1772976491146.108,-0.9698,-0.1015,-0.115,1.417,-6.274,-0.77
1772976491146.108,-0.9732,-0.1035,-0.111,1.19,-6.265,-0.823
1772976491146.108,-0.9725,-0.101,-0.1122,1.094,-6.169,-1.181
1772976491146.108,-0.9753,-0.1027,-0.1113,0.989,-6.195,-1.006
1772976491146.108,-0.9717,-0.1038,-0.1111,1.321,-6.02,-0.919
1772976491146.108,-0.9733,-0.1041,-0.1126,1.444,-5.924,-1.12
1772976491146.108,-0.9745,-0.1037,-0.1114,1.391,-5.941,-1.304
1772976491146.108,-0.9739,-0.1054,-0.1122,1.269,-5.959,-1.234
1772976491162.1343,-0.9728,-0.1063,-0.1121,1.383,-6.029,-1.129
1772976491162.1343,-0.9749,-0.106,-0.1116,1.374,-6.204,-1.26
1772976491162.1343,-0.9737,-0.1082,-0.1099,1.514,-5.968,-1.251
1772976491162.1343,-0.9714,-0.1059,-0.1104,1.68,-6.064,-1.391
1772976491162.1343,-0.973,-0.1077,-0.1119,1.514,-6.003,-1.531
1772976491162.1343,-0.9732,-0.106,-0.1122,1.619,-6.116,-1.479
1772976491162.1343,-0.9715,-0.1102,-0.1144,1.724,-6.16,-1.549
1772976491162.1343,-0.9748,-0.1055,-0.1135,1.978,-6.029,-1.619
1772976491162.1343,-0.9746,-0.1102,-0.1149,1.855,-6.011,-1.444
1772976491162.1343,-0.9729,-0.1118,-0.1138,1.986,-6.029,-1.89
1772976491162.1343,-0.9729,-0.1146,-0.1161,2.039,-6.178,-1.89
1772976491162.1343,-0.9741,-0.1147,-0.1187,2.135,-6.143,-1.768
1772976491162.1343,-0.9753,-0.1152,-0.1177,2.257,-6.151,-1.4
1772976491177.6619,-0.9761,-0.1135,-0.1183,2.284,-6.099,-1.558
1772976491177.6619,-0.9775,-0.1136,-0.1164,1.916,-6.107,-1.89
1772976491177.6619,-0.9809,-0.1108,-0.1131,1.978,-5.959,-1.715
1772976491177.6619,-0.9814,-0.1109,-0.1144,2.424,-6.178,-1.654
1772976491177.6619,-0.9814,-0.1108,-0.1133,2.31,-6.037,-1.68
1772976491177.6619,-0.9811,-0.113,-0.1135,2.039,-6.003,-1.645
1772976491177.6619,-0.9814,-0.1128,-0.1149,2.083,-6.003,-1.698
1772976491177.6619,-0.9798,-0.1138,-0.1134,2.188,-5.985,-1.724
1772976491177.6619,-0.9799,-0.1113,-0.1161,2.109,-5.862,-1.619
1772976491177.6619,-0.9812,-0.1099,-0.1171,2.047,-5.705,-1.575
1772976491177.6619,-0.9787,-0.1111,-0.1193,2.091,-5.976,-1.566
1772976491177.6619,-0.9794,-0.109,-0.1177,1.951,-6.02,-1.654
1772976491177.6619,-0.9815,-0.1094,-0.1144,2.083,-5.836,-1.654
1772976491193.19,-0.9797,-0.1125,-0.1158,2.013,-5.976,-1.689
1772976491193.19,-0.9793,-0.108,-0.116,2.118,-6.178,-1.741
1772976491193.19,-0.9817,-0.1082,-0.1145,2.126,-6.239,-1.488
1772976491193.19,-0.9798,-0.1104,-0.1193,2.056,-5.836,-1.627
1772976491193.19,-0.9789,-0.1092,-0.1168,1.776,-6.02,-1.645
1772976491193.19,-0.9787,-0.1091,-0.113,1.855,-5.731,-1.619
1772976491193.19,-0.9814,-0.1067,-0.1156,1.934,-5.819,-1.566
1772976491193.19,-0.9787,-0.1093,-0.1159,2.047,-5.924,-1.558
1772976491193.19,-0.9788,-0.1078,-0.1165,1.986,-5.758,-1.645
1772976491193.19,-0.9788,-0.1069,-0.1176,1.785,-5.889,-1.61
1772976491193.19,-0.9781,-0.1102,-0.1164,1.776,-5.88,-1.732
1772976491193.19,-0.9798,-0.1086,-0.1175,1.68,-6.011,-1.636
1772976491209.218,-0.977,-0.1084,-0.1156,1.715,-6.046,-1.339
1772976491209.218,-0.9777,-0.1082,-0.1188,1.558,-6.003,-1.286
1772976491209.218,-0.9788,-0.1071,-0.1163,1.435,-6.116,-1.496
1772976491209.218,-0.9786,-0.1082,-0.1162,1.654,-6.239,-1.33
1772976491209.218,-0.9792,-0.105,-0.1169,1.566,-6.037,-1.461
1772976491209.218,-0.9783,-0.1051,-0.1194,1.514,-6.134,-1.732
1772976491209.218,-0.9806,-0.1044,-0.12,1.461,-6.169,-1.593
1772976491209.218,-0.9778,-0.1023,-0.1164,1.706,-6.055,-1.689
1772976491209.218,-0.9793,-0.1033,-0.1127,1.846,-6.16,-1.741
1772976491209.218,-0.9792,-0.1007,-0.115,1.715,-6.16,-1.619
1772976491209.218,-0.9772,-0.102,-0.116,1.654,-5.959,-1.82
1772976491209.218,-0.9795,-0.1006,-0.1149,1.724,-6.143,-1.855
1772976491209.218,-0.9779,-0.1007,-0.1173,1.522,-6.046,-1.995
1772976491224.7568,-0.978,-0.1005,-0.1177,1.794,-5.74,-1.846
1772976491224.7568,-0.9795,-0.1011,-0.1161,1.4,-5.836,-2.03
1772976491224.7568,-0.9781,-0.1014,-0.1136,1.514,-6.029,-1.899
1772976491224.7568,-0.9809,-0.103,-0.1118,1.645,-5.723,-1.978
1772976491224.7568,-0.9778,-0.101,-0.1163,1.601,-5.574,-1.978
1772976491224.7568,-0.977,-0.1029,-0.1127,1.522,-5.836,-2.118
1772976491224.7568,-0.9786,-0.1007,-0.1141,1.575,-5.766,-2.301
1772976491224.7568,-0.9802,-0.0969,-0.1144,1.566,-5.723,-2.118
1772976491224.7568,-0.9817,-0.0988,-0.1118,1.75,-5.67,-2.24
1772976491224.7568,-0.9818,-0.0968,-0.1173,1.706,-5.565,-2.056
1772976491224.7568,-0.9783,-0.098,-0.1147,1.584,-5.565,-1.916
1772976491224.7568,-0.9788,-0.0978,-0.1124,1.522,-5.548,-2.328
1772976491224.7568,-0.9778,-0.0971,-0.1158,1.619,-5.46,-2.301
1772976491239.9006,-0.9778,-0.0977,-0.116,1.531,-5.399,-2.415
1772976491239.9006,-0.9784,-0.1005,-0.1166,1.54,-5.548,-2.572
1772976491239.9006,-0.9765,-0.1009,-0.1175,1.724,-5.652,-2.45
1772976491239.9006,-0.9767,-0.1003,-0.118,1.636,-5.565,-2.38
1772976491239.9006,-0.9762,-0.102,-0.1166,1.601,-5.688,-2.362
1772976491239.9006,-0.9751,-0.0998,-0.1152,1.409,-5.968,-2.538
1772976491239.9006,-0.9798,-0.1003,-0.116,1.435,-5.784,-2.284
1772976491239.9006,-0.9812,-0.1,-0.1131,1.417,-5.67,-2.433
1772976491239.9006,-0.979,-0.098,-0.1131,1.278,-5.924,-2.529
1772976491239.9006,-0.9805,-0.0986,-0.1168,1.391,-5.976,-2.564
1772976491239.9006,-0.981,-0.1017,-0.1114,1.26,-5.854,-2.433
1772976491239.9006,-0.9804,-0.1036,-0.1109,1.496,-5.915,-2.45
1772976491255.0964,-0.98,-0.104,-0.1119,1.173,-5.915,-2.616
1772976491255.0964,-0.9803,-0.1038,-0.1131,1.269,-5.775,-2.275
1772976491255.0964,-0.9789,-0.1041,-0.1107,1.496,-5.644,-2.354
1772976491255.0964,-0.982,-0.1041,-0.1093,1.671,-5.582,-2.511
1772976491255.0964,-0.9826,-0.1004,-0.119,1.601,-5.644,-2.433
1772976491255.0964,-0.9827,-0.1099,-0.1047,1.855,-5.793,-2.433
1772976491255.0964,-0.982,-0.1085,-0.1149,1.698,-5.46,-2.205
1772976491255.0964,-0.9844,-0.108,-0.116,1.575,-5.688,-2.021
1772976491255.0964,-0.9861,-0.1091,-0.1148,1.461,-5.582,-2.091
1772976491255.0964,-0.9863,-0.1061,-0.1129,1.601,-5.749,-1.873
1772976491255.0964,-0.9886,-0.1072,-0.1071,1.96,-5.652,-1.995
1772976491255.0964,-0.988,-0.1078,-0.1113,1.978,-5.915,-1.978
1772976491270.675,-0.9874,-0.1103,-0.1099,1.881,-5.827,-2.144
1772976491270.675,-0.9904,-0.1109,-0.1149,1.89,-5.827,-1.934
1772976491270.675,-0.9871,-0.1083,-0.1183,1.978,-5.968,-1.741
1772976491270.675,-0.9877,-0.1103,-0.1098,2.091,-6.169,-1.864
1772976491270.675,-0.9895,-0.11,-0.111,2.074,-6.055,-1.846
1772976491270.675,-0.9887,-0.108,-0.1093,2.284,-5.95,-1.584
1772976491270.675,-0.9916,-0.1096,-0.1111,2.31,-6.256,-1.689
1772976491270.675,-0.9902,-0.1102,-0.1133,2.24,-6.116,-1.837
1772976491270.675,-0.9889,-0.111,-0.1128,2.424,-6.169,-1.715
1772976491270.675,-0.989,-0.1115,-0.1136,2.643,-6.239,-1.776
1772976491270.675,-0.9888,-0.1127,-0.1136,2.485,-6.431,-1.663
1772976491270.675,-0.99,-0.1143,-0.1157,2.494,-6.064,-1.645
1772976491270.675,-0.99,-0.1143,-0.1137,2.643,-6.09,-1.837
1772976491286.7185,-0.9871,-0.1135,-0.1144,2.826,-6.396,-1.759
1772976491286.7185,-0.9892,-0.1137,-0.1152,2.607,-6.23,-1.593
1772976491286.7185,-0.9909,-0.1128,-0.1116,2.739,-6.265,-1.321
1772976491286.7185,-0.9881,-0.1118,-0.1113,2.835,-6.213,-1.365
1772976491286.7185,-0.9895,-0.1126,-0.1128,2.643,-6.431,-1.505
1772976491286.7185,-0.988,-0.1099,-0.1127,2.8,-6.282,-1.356
1772976491286.7185,-0.9875,-0.1069,-0.1114,3.045,-6.405,-1.146
1772976491286.7185,-0.987,-0.1116,-0.1135,2.931,-6.58,-1.12
1772976491286.7185,-0.9862,-0.1097,-0.1168,3.185,-6.79,-1.234
1772976491286.7185,-0.9872,-0.1106,-0.1174,3.132,-6.668,-1.146
1772976491286.7185,-0.986,-0.1082,-0.1133,3.089,-6.781,-1.103
1772976491286.7185,-0.9859,-0.108,-0.116,2.853,-6.694,-0.963
1772976491286.7185,-0.9881,-0.1071,-0.1136,3.01,-6.808,-0.84
1772976491302.7937,-0.9858,-0.1068,-0.1152,3.246,-6.624,-0.892
1772976491302.7937,-0.9861,-0.106,-0.1093,3.027,-6.711,-0.892
1772976491302.7937,-0.9842,-0.106,-0.1127,2.958,-6.676,-0.945
1772976491302.7937,-0.9831,-0.106,-0.1133,2.949,-6.808,-1.05
1772976491302.7937,-0.9842,-0.1038,-0.1154,2.87,-6.676,-0.91
1772976491302.7937,-0.9837,-0.1035,-0.114,2.826,-6.694,-0.84
1772976491302.7937,-0.9843,-0.1039,-0.116,2.879,-6.746,-0.796
1772976491302.7937,-0.9834,-0.1008,-0.1149,2.809,-6.694,-0.709
1772976491302.7937,-0.9805,-0.1011,-0.1132,2.94,-6.624,-0.823
1772976491302.7937,-0.9841,-0.1016,-0.1118,2.914,-6.781,-0.884
1772976491302.7937,-0.9816,-0.1019,-0.1132,2.8,-6.702,-0.656
1772976491302.7937,-0.9824,-0.0984,-0.11,2.922,-6.843,-0.954
1772976491302.7937,-0.9817,-0.1004,-0.1119,2.984,-6.93,-0.919
1772976491318.9446,-0.9799,-0.1013,-0.1137,2.949,-6.694,-0.805
1772976491318.9446,-0.9803,-0.1021,-0.1119,2.809,-6.562,-0.884
1772976491318.9446,-0.9807,-0.0982,-0.1155,2.914,-6.405,-1.067
1772976491318.9446,-0.9809,-0.097,-0.1114,3.098,-6.484,-0.858
1772976491318.9446,-0.9817,-0.0964,-0.112,3.159,-6.615,-1.146
1772976491318.9446,-0.9805,-0.098,-0.1135,3.176,-6.353,-1.269
1772976491318.9446,-0.9823,-0.0991,-0.1139,3.132,-6.466,-1.181
1772976491318.9446,-0.9803,-0.0999,-0.1136,3.027,-6.195,-1.321
1772976491318.9446,-0.9811,-0.1001,-0.1157,3.421,-6.335,-1.426
1772976491318.9446,-0.979,-0.101,-0.1177,3.159,-6.431,-1.444
1772976491318.9446,-0.9775,-0.1015,-0.1185,3.264,-6.615,-1.689
1772976491318.9446,-0.9771,-0.0996,-0.1175,3.281,-6.781,-1.636
1772976491318.9446,-0.9793,-0.1002,-0.1193,3.474,-6.3,-1.601
1772976491333.9854,-0.979,-0.101,-0.1166,3.509,-6.195,-1.444
1772976491333.9854,-0.98,-0.1029,-0.1164,3.474,-6.099,-1.689
1772976491333.9854,-0.9766,-0.1013,-0.1166,3.203,-6.396,-1.671
1772976491333.9854,-0.9781,-0.1032,-0.1161,3.351,-6.475,-1.785
1772976491333.9854,-0.9781,-0.1027,-0.1175,3.395,-6.571,-1.759
1772976491333.9854,-0.9766,-0.1013,-0.1148,3.351,-6.702,-1.785
1772976491333.9854,-0.9782,-0.1021,-0.1155,3.308,-6.37,-1.829
1772976491333.9854,-0.9769,-0.1008,-0.1146,3.342,-6.405,-1.741
1772976491333.9854,-0.9766,-0.1025,-0.1147,3.203,-6.466,-2.056
1772976491333.9854,-0.9765,-0.1006,-0.1161,3.22,-6.536,-2.056
1772976491333.9854,-0.978,-0.1018,-0.1146,3.246,-6.589,-1.768
1772976491333.9854,-0.9787,-0.1034,-0.1149,3.22,-6.353,-1.934
1772976491350.3928,-0.979,-0.1024,-0.1146,3.22,-6.44,-1.934
1772976491350.3928,-0.9788,-0.1026,-0.1146,3.447,-6.737,-2.091
1772976491350.3928,-0.9794,-0.1042,-0.1135,3.29,-6.423,-2.083
1772976491350.3928,-0.9773,-0.1035,-0.1146,3.491,-6.16,-2.205
1772976491350.3928,-0.9769,-0.1035,-0.1151,3.526,-6.247,-2.074
1772976491350.3928,-0.9776,-0.1044,-0.1147,3.439,-6.694,-1.829
1772976491350.3928,-0.9773,-0.1053,-0.1146,3.544,-6.484,-1.951
1772976491350.3928,-0.9772,-0.1039,-0.1139,3.605,-6.484,-1.881
1772976491350.3928,-0.9809,-0.1049,-0.1126,3.57,-6.44,-1.934
1772976491350.3928,-0.9789,-0.1048,-0.1125,3.246,-6.116,-2.047
1772976491350.3928,-0.9792,-0.104,-0.1106,3.325,-6.335,-1.881
1772976491350.3928,-0.9819,-0.1068,-0.1146,3.509,-6.265,-2.065
1772976491350.3928,-0.9805,-0.1055,-0.1126,3.237,-6.545,-2.1
1772976491350.3928,-0.9801,-0.1041,-0.1147,3.264,-6.457,-2.223
1772976491365.9036,-0.9786,-0.1054,-0.1163,3.334,-6.423,-2.013
1772976491365.9036,-0.982,-0.1035,-0.1138,3.518,-6.282,-1.759
1772976491365.9036,-0.9838,-0.1061,-0.1137,3.167,-6.309,-1.689
1772976491365.9036,-0.9823,-0.1044,-0.114,3.211,-6.16,-1.627
1772976491365.9036,-0.9836,-0.1067,-0.1133,3.098,-6.344,-1.715
1772976491365.9036,-0.9827,-0.1049,-0.1144,3.211,-6.247,-1.531
1772976491365.9036,-0.9841,-0.105,-0.1148,3.29,-6.239,-1.575
1772976491365.9036,-0.9839,-0.1058,-0.1159,3.159,-6.221,-1.593
1772976491365.9036,-0.9822,-0.1053,-0.1162,3.054,-6.344,-1.732
1772976491365.9036,-0.9833,-0.1054,-0.1143,2.826,-6.195,-1.47
1772976491365.9036,-0.9822,-0.1057,-0.1167,2.922,-6.064,-1.251
1772976491365.9036,-0.9828,-0.1067,-0.1195,2.8,-6.143,-1.085
1772976491381.2395,-0.984,-0.1032,-0.1187,2.712,-6.204,-1.12
1772976491381.2395,-0.9822,-0.1077,-0.1193,2.59,-6.353,-1.339
1772976491381.2395,-0.985,-0.1055,-0.1172,2.52,-6.475,-1.706
1772976491381.2395,-0.9858,-0.1042,-0.1143,2.415,-6.274,-1.4
1772976491381.2395,-0.9845,-0.1037,-0.1123,2.459,-6.492,-1.339
1772976491381.2395,-0.9855,-0.1037,-0.1128,2.625,-6.711,-1.164
1772976491381.2395,-0.9849,-0.1027,-0.1149,2.607,-6.536,-1.417
1772976491381.2395,-0.982,-0.1023,-0.1143,2.817,-6.711,-1.61
1772976491381.2395,-0.9826,-0.1046,-0.113,2.607,-6.72,-1.514
1772976491381.2395,-0.9812,-0.105,-0.1128,2.389,-6.912,-1.514
1772976491381.2395,-0.9847,-0.1043,-0.1114,2.607,-6.982,-1.488
1772976491381.2395,-0.9812,-0.1048,-0.1122,2.721,-6.746,-1.654
1772976491381.2395,-0.9817,-0.1065,-0.1091,2.564,-6.921,-1.531
1772976491396.7598,-0.9807,-0.1073,-0.1102,2.625,-6.755,-1.741
1772976491396.7598,-0.9795,-0.1071,-0.1073,2.879,-7.053,-1.593
1772976491396.7598,-0.9792,-0.1082,-0.1073,2.774,-7.079,-1.575
1772976491396.7598,-0.9798,-0.1063,-0.1091,2.826,-7.254,-1.575
1772976491396.7598,-0.9778,-0.1093,-0.1064,2.879,-6.921,-1.619
1772976491396.7598,-0.9797,-0.1085,-0.1055,3.045,-6.93,-1.584
1772976491396.7598,-0.9781,-0.1074,-0.1083,3.194,-6.965,-1.645
1772976491396.7598,-0.9767,-0.1062,-0.1097,3.22,-6.956,-1.286
1772976491396.7598,-0.9797,-0.108,-0.1072,3.089,-6.956,-1.417
1772976491396.7598,-0.9766,-0.1099,-0.1079,2.993,-6.93,-1.636
1772976491396.7598,-0.974,-0.1108,-0.1103,3.115,-6.956,-1.627
1772976491396.7598,-0.9764,-0.1103,-0.1096,3.167,-6.965,-1.627
1772976491413.127,-0.9765,-0.11,-0.1085,3.395,-6.598,-1.671
1772976491413.127,-0.9753,-0.1096,-0.1078,2.783,-7.009,-1.374
1772976491413.127,-0.9756,-0.11,-0.1074,2.888,-6.808,-1.242
1772976491413.127,-0.974,-0.109,-0.1071,2.861,-6.781,-1.417
1772976491413.127,-0.9756,-0.1087,-0.1059,2.975,-6.492,-1.706
1772976491413.127,-0.9758,-0.1087,-0.1086,2.993,-6.396,-1.514
1772976491413.127,-0.9772,-0.1046,-0.1038,2.835,-6.554,-1.452
1772976491413.127,-0.9748,-0.1053,-0.1072,2.94,-6.668,-1.321
1772976491413.127,-0.9747,-0.1078,-0.1066,2.984,-6.562,-1.444
1772976491413.127,-0.9786,-0.1061,-0.107,2.861,-6.221,-1.356
1772976491413.127,-0.9744,-0.1052,-0.1086,3.115,-6.116,-1.304
1772976491413.127,-0.9756,-0.1052,-0.1069,3.001,-6.414,-1.479
1772976491413.127,-0.9744,-0.105,-0.1077,3.098,-6.466,-1.444
1772976491428.6577,-0.9762,-0.1026,-0.1074,3.132,-6.317,-1.278
1772976491428.6577,-0.9747,-0.1066,-0.1072,2.966,-6.178,-1.409
1772976491428.6577,-0.9763,-0.1039,-0.108,2.896,-6.178,-1.129
1772976491428.6577,-0.9743,-0.105,-0.1122,3.036,-6.143,-1.286
1772976491428.6577,-0.9726,-0.1043,-0.1102,3.098,-6.221,-1.435
1772976491428.6577,-0.9725,-0.1053,-0.1124,3.194,-6.09,-1.522
1772976491428.6577,-0.9769,-0.1042,-0.1097,3.08,-6.379,-1.496
1772976491428.6577,-0.9739,-0.1045,-0.1093,3.062,-6.37,-1.654
1772976491428.6577,-0.975,-0.1043,-0.1116,3.098,-6.431,-1.409
1772976491428.6577,-0.9745,-0.1035,-0.1099,3.351,-6.247,-1.531
1772976491428.6577,-0.9764,-0.1039,-0.1066,3.176,-6.344,-1.549
1772976491428.6577,-0.9736,-0.1032,-0.1071,3.141,-6.344,-1.627
1772976491428.6577,-0.9747,-0.1026,-0.1081,3.29,-6.186,-1.82
1772976491443.8743,-0.9729,-0.1025,-0.1085,3.15,-6.151,-1.601
1772976491443.8743,-0.9732,-0.1031,-0.1105,3.386,-6.186,-1.181
1772976491443.8743,-0.9721,-0.1015,-0.1117,3.36,-6.213,-1.409
1772976491443.8743,-0.9725,-0.1001,-0.1098,3.36,-6.353,-1.391
1772976491443.8743,-0.9711,-0.1,-0.1121,3.185,-6.213,-1.452
1772976491443.8743,-0.9744,-0.1009,-0.1128,3.246,-6.204,-1.531
1772976491443.8743,-0.9732,-0.1011,-0.114,3.15,-6.195,-1.531
1772976491443.8743,-0.9744,-0.0997,-0.1096,3.203,-6.361,-1.916
1772976491443.8743,-0.9712,-0.1006,-0.1105,3.115,-6.388,-1.934
1772976491443.8743,-0.9748,-0.1006,-0.1124,3.106,-6.125,-1.75
1772976491443.8743,-0.9735,-0.1006,-0.111,2.993,-6.064,-1.855
1772976491443.8743,-0.9759,-0.1014,-0.1102,2.861,-6.107,-1.698
1772976491459.3525,-0.9741,-0.0992,-0.1119,2.888,-6.151,-1.907
1772976491459.3525,-0.9727,-0.0995,-0.1125,2.853,-6.3,-1.776
1772976491459.3525,-0.9755,-0.1006,-0.112,3.01,-6.116,-1.619
1772976491459.3525,-0.9726,-0.1005,-0.1121,2.949,-6.291,-1.663
1772976491459.3525,-0.9739,-0.0988,-0.1141,2.581,-6.169,-2.004
1772976491459.3525,-0.9726,-0.0985,-0.1139,2.607,-6.353,-1.873
1772976491459.3525,-0.9744,-0.0996,-0.1105,2.476,-6.125,-1.846
1772976491459.3525,-0.9784,-0.0978,-0.1103,2.581,-6.151,-1.689
1772976491459.3525,-0.9785,-0.098,-0.1114,2.328,-6.221,-1.995
1772976491459.3525,-0.978,-0.0971,-0.1092,2.345,-6.379,-1.829
1772976491459.3525,-0.9781,-0.0975,-0.1123,2.205,-6.274,-1.934
1772976491459.3525,-0.976,-0.0963,-0.1144,2.538,-6.072,-1.864
1772976491459.3525,-0.9767,-0.098,-0.1148,2.275,-6.213,-1.698
1772976491474.756,-0.9776,-0.0978,-0.1155,2.354,-6.247,-1.619
1772976491474.756,-0.9781,-0.0993,-0.1138,2.074,-6.344,-1.846
1772976491474.756,-0.9781,-0.0972,-0.1133,1.916,-6.501,-1.61
1772976491474.756,-0.9797,-0.0983,-0.111,1.925,-6.388,-1.627
1772976491474.756,-0.9804,-0.0964,-0.1128,1.785,-6.256,-1.741
1772976491474.756,-0.979,-0.0971,-0.1118,1.741,-6.431,-1.663
1772976491474.756,-0.9815,-0.0961,-0.1114,1.881,-6.414,-1.794
1772976491474.756,-0.9795,-0.0981,-0.1096,1.759,-6.676,-1.82
1772976491474.756,-0.9781,-0.0986,-0.1121,1.584,-6.423,-1.706
1772976491474.756,-0.9776,-0.0994,-0.1137,1.689,-6.326,-1.785
1772976491474.756,-0.9804,-0.0972,-0.1132,1.496,-6.09,-1.916
1772976491474.756,-0.9819,-0.0975,-0.1105,1.383,-6.256,-2.179
1772976491490.4612,-0.981,-0.0995,-0.1094,1.636,-6.414,-2.118
1772976491490.4612,-0.9808,-0.0981,-0.1086,1.505,-6.143,-2.336
1772976491490.4612,-0.9812,-0.102,-0.1102,1.601,-6.274,-2.091
1772976491490.4612,-0.9833,-0.1029,-0.1105,1.522,-6.571,-2.152
1772976491490.4612,-0.9814,-0.1017,-0.107,1.312,-6.247,-2.021
1772976491490.4612,-0.9837,-0.1024,-0.1077,1.304,-6.37,-2.065
1772976491490.4612,-0.9833,-0.1022,-0.1086,1.216,-6.107,-2.126
1772976491490.4612,-0.9812,-0.1042,-0.1092,1.347,-6.116,-2.179
1772976491490.4612,-0.9812,-0.1037,-0.1069,1.444,-6.213,-2.188
1772976491490.4612,-0.982,-0.1032,-0.1086,1.435,-6.457,-2.144
1772976491490.4612,-0.9819,-0.1058,-0.1057,1.54,-6.475,-2.292
1772976491490.4612,-0.9833,-0.1052,-0.1075,1.671,-6.178,-2.336
1772976491490.4612,-0.9835,-0.109,-0.1061,1.61,-6.449,-2.433
1772976491506.3225,-0.9808,-0.1086,-0.1077,1.741,-6.405,-2.257
1772976491506.3225,-0.9817,-0.1108,-0.1087,1.768,-6.291,-2.284
1772976491506.3225,-0.9839,-0.1086,-0.1082,1.715,-6.169,-2.389
1772976491506.3225,-0.9814,-0.1107,-0.1056,1.698,-6.475,-2.459
1772976491506.3225,-0.9795,-0.1103,-0.1095,1.776,-6.475,-2.301
1772976491506.3225,-0.9801,-0.111,-0.1088,1.566,-6.536,-2.441
1772976491506.3225,-0.9808,-0.1099,-0.1081,1.802,-6.598,-2.529
1772976491506.3225,-0.9806,-0.1103,-0.1085,1.68,-6.65,-2.712
1772976491506.3225,-0.9793,-0.1107,-0.1075,1.881,-6.256,-2.476
1772976491506.3225,-0.9814,-0.1093,-0.1083,1.951,-6.265,-2.362
1772976491506.3225,-0.9805,-0.1006,-0.1146,2.039,-6.414,-2.607
1772976491506.3225,-0.9812,-0.1099,-0.0997,2.844,-6.492,-2.643
1772976491506.3225,-0.9825,-0.1089,-0.1039,2.704,-6.492,-2.538
1772976491522.18,-0.9853,-0.1076,-0.1025,2.783,-6.37,-2.73
1772976491522.18,-0.9814,-0.1089,-0.104,2.678,-6.353,-2.931
1772976491522.18,-0.9822,-0.1093,-0.1102,2.984,-6.186,-2.704
1772976491522.18,-0.9828,-0.1123,-0.1103,3.176,-6.037,-2.669
1772976491522.18,-0.9821,-0.1134,-0.1102,3.342,-6.423,-2.861
1772976491522.18,-0.9821,-0.1122,-0.1107,3.43,-6.431,-2.809
1772976491522.18,-0.9818,-0.1158,-0.1096,2.949,-6.256,-2.783
1772976491522.18,-0.9814,-0.1136,-0.1119,3.045,-6.239,-2.686
1772976491522.18,-0.9847,-0.1127,-0.1128,2.721,-6.44,-2.599
1772976491522.18,-0.9834,-0.1136,-0.1088,2.888,-6.265,-2.564
1772976491522.18,-0.9853,-0.1138,-0.1088,2.844,-6.221,-2.459
1772976491522.18,-0.9839,-0.1114,-0.1069,2.905,-6.125,-2.389
1772976491522.18,-0.9843,-0.1089,-0.1113,2.616,-6.09,-2.231
1772976491537.2224,-0.983,-0.1087,-0.1091,2.643,-6.317,-2.275
1772976491537.2224,-0.9855,-0.1073,-0.1082,2.538,-6.213,-2.126
1772976491537.2224,-0.9814,-0.1063,-0.1111,2.546,-6.204,-2.266
1772976491537.2224,-0.983,-0.1042,-0.1083,2.581,-6.256,-2.336
1772976491537.2224,-0.9841,-0.1054,-0.1105,2.695,-6.195,-2.03
1772976491537.2224,-0.9819,-0.1053,-0.1128,2.52,-5.985,-2.065
1772976491537.2224,-0.9833,-0.1037,-0.1126,2.45,-6.02,-2.109
1772976491537.2224,-0.9817,-0.104,-0.1127,2.301,-5.95,-2.214
1772976491537.2224,-0.9811,-0.1047,-0.1128,2.091,-5.871,-2.039
1772976491537.2224,-0.9831,-0.1012,-0.1091,1.978,-6.037,-2.03
1772976491537.2224,-0.9836,-0.1012,-0.1111,2.03,-5.924,-1.934
1772976491537.2224,-0.9821,-0.1022,-0.1091,1.794,-6.037,-2.091
1772976491552.8096,-0.9798,-0.1,-0.1087,1.864,-6.247,-2.047
1772976491552.8096,-0.9808,-0.1025,-0.11,1.995,-6.282,-2.144
1772976491552.8096,-0.9792,-0.1009,-0.1098,1.916,-6.09,-2.249
1772976491552.8096,-0.9795,-0.1006,-0.11,1.873,-6.09,-1.942
1772976491552.8096,-0.9792,-0.0991,-0.1113,1.969,-6.475,-1.873
1772976491552.8096,-0.9795,-0.1001,-0.1072,2.039,-6.326,-2.1
1772976491552.8096,-0.979,-0.0988,-0.1066,1.837,-6.151,-2.021
1772976491552.8096,-0.9809,-0.0979,-0.1091,2.135,-6.186,-2.152
1772976491552.8096,-0.9798,-0.0998,-0.1101,2.196,-6.247,-2.231
1772976491552.8096,-0.9776,-0.0995,-0.1124,1.925,-6.58,-2.319
1772976491552.8096,-0.9798,-0.1,-0.1094,1.907,-6.37,-2.223
1772976491552.8096,-0.9812,-0.1019,-0.1089,1.916,-6.606,-2.362
1772976491552.8096,-0.9803,-0.1016,-0.1127,1.846,-6.466,-2.188
1772976491567.938,-0.9788,-0.1016,-0.1122,1.873,-6.668,-2.257
1772976491567.938,-0.9769,-0.1044,-0.1109,1.75,-6.545,-2.196
1772976491567.938,-0.9769,-0.1024,-0.1094,1.785,-6.492,-2.047
1772976491567.938,-0.9787,-0.1043,-0.113,2.091,-6.449,-2.047
1772976491567.938,-0.975,-0.1044,-0.1121,2.152,-6.484,-2.266
1772976491567.938,-0.9764,-0.1053,-0.1125,1.978,-6.492,-2.284
1772976491567.938,-0.9774,-0.1056,-0.1149,2.249,-6.571,-2.004
1772976491567.938,-0.9775,-0.106,-0.1144,2.284,-6.589,-2.24
1772976491567.938,-0.9772,-0.1048,-0.1135,2.109,-6.851,-2.196
1772976491567.938,-0.982,-0.107,-0.1097,2.091,-6.466,-2.223
1772976491567.938,-0.9801,-0.1084,-0.1139,1.96,-6.44,-2.266
1772976491567.938,-0.9845,-0.1064,-0.1112,2.1,-6.545,-2.249
1772976491583.823,-0.9803,-0.1064,-0.1138,2.083,-6.624,-2.485
1772976491583.823,-0.9832,-0.1027,-0.115,2.074,-6.475,-2.345
1772976491583.823,-0.9814,-0.1061,-0.1147,2.24,-6.615,-2.214
1772976491583.823,-0.9814,-0.106,-0.1122,2.021,-6.729,-2.135
1772976491583.823,-0.9848,-0.1046,-0.1107,1.768,-6.72,-2.249
1772976491583.823,-0.9823,-0.1041,-0.1102,1.584,-6.423,-2.485
1772976491583.823,-0.9825,-0.1055,-0.1083,1.698,-6.457,-2.476
1772976491583.823,-0.9811,-0.1058,-0.1118,1.479,-6.457,-2.301
1772976491583.823,-0.9854,-0.1079,-0.1111,1.689,-6.668,-2.459
1772976491583.823,-0.9839,-0.1044,-0.1089,1.768,-6.51,-2.546
1772976491583.823,-0.9838,-0.1064,-0.1046,1.505,-6.746,-2.459
1772976491583.823,-0.983,-0.1082,-0.1064,1.671,-6.554,-2.616
1772976491583.823,-0.9845,-0.1068,-0.1082,1.916,-6.335,-2.581
1772976491599.8523,-0.983,-0.1085,-0.1073,1.925,-6.353,-2.538
1772976491599.8523,-0.9839,-0.1064,-0.1065,1.75,-6.37,-2.301
1772976491599.8523,-0.985,-0.1085,-0.1081,1.75,-6.23,-2.319
1772976491599.8523,-0.9836,-0.1082,-0.107,1.811,-6.344,-2.275
1772976491599.8523,-0.9843,-0.1093,-0.1058,1.75,-6.029,-2.485
1772976491599.8523,-0.983,-0.1093,-0.1083,1.916,-6.125,-2.433
1772976491599.8523,-0.9802,-0.1098,-0.1103,1.986,-6.274,-2.476
1772976491599.8523,-0.9807,-0.1124,-0.1093,2.24,-6.344,-2.52
1772976491599.8523,-0.9814,-0.1121,-0.11,2.152,-6.405,-2.205
1772976491599.8523,-0.9827,-0.1126,-0.1093,2.179,-6.501,-2.135
1772976491599.8523,-0.9812,-0.1125,-0.109,2.415,-6.326,-2.424
1772976491599.8523,-0.9808,-0.1135,-0.1048,2.686,-6.326,-2.616
1772976491599.8523,-0.9816,-0.1144,-0.1074,2.634,-6.51,-2.59
1772976491615.7175,-0.9825,-0.117,-0.109,2.678,-6.3,-2.406
1772976491615.7175,-0.9806,-0.1171,-0.1099,2.704,-6.624,-2.546
1772976491615.7175,-0.9801,-0.1161,-0.1093,2.476,-6.431,-2.336
1772976491615.7175,-0.9808,-0.1186,-0.1077,2.397,-6.545,-2.257
1772976491615.7175,-0.9826,-0.1142,-0.108,2.223,-6.335,-2.362
1772976491615.7175,-0.9829,-0.1149,-0.1074,2.301,-6.361,-2.135
1772976491615.7175,-0.9797,-0.1157,-0.1035,2.494,-6.449,-2.188
1772976491615.7175,-0.9829,-0.1127,-0.1048,2.389,-6.51,-2.249
1772976491615.7175,-0.9836,-0.1119,-0.1074,2.214,-6.545,-2.161
1772976491615.7175,-0.9796,-0.1126,-0.1043,2.397,-6.72,-2.126
1772976491615.7175,-0.9817,-0.1096,-0.1038,2.336,-6.484,-2.056
1772976491615.7175,-0.984,-0.1093,-0.1066,2.572,-6.361,-2.1
1772976491615.7175,-0.9843,-0.1093,-0.103,2.546,-6.335,-1.916
1772976491632.1467,-0.9837,-0.1072,-0.1041,2.695,-6.247,-2.03
1772976491632.1467,-0.9819,-0.1094,-0.106,2.485,-5.985,-1.907
1772976491632.1467,-0.9813,-0.1111,-0.1091,2.476,-5.714,-2.1
1772976491632.1467,-0.9812,-0.1097,-0.1071,2.599,-5.679,-2.109
1772976491632.1467,-0.9823,-0.1103,-0.1084,2.678,-5.959,-2.021
1772976491632.1467,-0.9831,-0.1091,-0.1066,2.607,-6.055,-2.039
1772976491632.1467,-0.9821,-0.1093,-0.1085,2.686,-5.906,-2.118
1772976491632.1467,-0.9811,-0.1075,-0.1083,2.695,-5.827,-1.978
1772976491632.1467,-0.9816,-0.1074,-0.1111,2.94,-5.766,-2.091
1772976491632.1467,-0.9761,-0.107,-0.113,2.669,-5.766,-2.047
1772976491632.1467,-0.9787,-0.1052,-0.1114,2.678,-5.582,-1.916
1772976491632.1467,-0.9775,-0.1079,-0.1114,2.809,-5.915,-2.135
1772976491632.1467,-0.9767,-0.1062,-0.1127,2.686,-6.037,-2.144
1772976491648.2124,-0.9794,-0.1076,-0.1126,2.958,-6.064,-2.004
1772976491648.2124,-0.9784,-0.1081,-0.1124,2.984,-6.09,-2.415
1772976491648.2124,-0.9804,-0.1074,-0.1129,2.853,-6.037,-2.1
1772976491648.2124,-0.979,-0.1037,-0.1094,2.826,-5.871,-2.056
1772976491648.2124,-0.9787,-0.1063,-0.1128,2.686,-6.046,-2.013
1772976491648.2124,-0.9784,-0.105,-0.1127,2.625,-6.107,-2.223
1772976491648.2124,-0.9788,-0.1012,-0.112,2.774,-6.09,-2.188
1772976491648.2124,-0.979,-0.1032,-0.1135,2.853,-6.317,-2.065
1772976491648.2124,-0.9813,-0.1036,-0.1148,2.853,-6.151,-1.942
1772976491648.2124,-0.9789,-0.1028,-0.1158,2.572,-6.274,-2.004
1772976491648.2124,-0.9798,-0.099,-0.1154,2.424,-6.256,-2.065
1772976491648.2124,-0.9784,-0.0992,-0.1116,2.835,-6.003,-2.074
1772976491648.2124,-0.979,-0.1007,-0.1128,2.397,-5.95,-2.065
1772976491664.7158,-0.9777,-0.1017,-0.1066,2.476,-6.186,-2.179
1772976491664.7158,-0.9789,-0.0991,-0.1099,2.336,-6.309,-2.1
1772976491664.7158,-0.9795,-0.1011,-0.1111,2.345,-6.195,-2.109
1772976491664.7158,-0.978,-0.1012,-0.1113,2.24,-6.335,-1.986
1772976491664.7158,-0.9775,-0.1013,-0.1082,2.1,-6.291,-2.004
1772976491664.7158,-0.9786,-0.0994,-0.1129,2.214,-6.169,-1.969
1772976491664.7158,-0.98,-0.1022,-0.1109,1.881,-6.029,-2.013
1772976491664.7158,-0.9781,-0.0999,-0.1122,1.916,-6.072,-1.934
1772976491664.7158,-0.979,-0.0969,-0.1144,2.021,-6.064,-1.995
1772976491664.7158,-0.9788,-0.0976,-0.1122,1.715,-6.151,-2.039
1772976491664.7158,-0.9778,-0.0985,-0.1125,1.741,-6.107,-2.1
1772976491664.7158,-0.9789,-0.1002,-0.1125,1.715,-6.213,-2.196
1772976491664.7158,-0.9777,-0.0992,-0.114,1.531,-6.151,-2.152
1772976491679.7366,-0.9778,-0.0968,-0.1158,1.4,-6.011,-2.039
1772976491679.7366,-0.9808,-0.095,-0.1119,1.19,-6.16,-2.1
1772976491679.7366,-0.9823,-0.0974,-0.114,1.085,-6.239,-2.152
1772976491679.7366,-0.9788,-0.098,-0.1139,1.015,-6.501,-2.161
1772976491679.7366,-0.9812,-0.0978,-0.1102,0.945,-6.309,-2.433
1772976491679.7366,-0.9801,-0.0989,-0.111,0.936,-6.282,-2.214
1772976491679.7366,-0.9821,-0.0987,-0.1078,0.963,-6.143,-2.301
1772976491679.7366,-0.9821,-0.0981,-0.1126,0.884,-6.414,-2.38
1772976491679.7366,-0.9814,-0.0969,-0.1072,0.823,-6.527,-2.476
1772976491679.7366,-0.9828,-0.0978,-0.1082,0.805,-6.379,-2.371
1772976491679.7366,-0.9834,-0.0983,-0.1067,0.796,-6.361,-2.424
1772976491679.7366,-0.9834,-0.0979,-0.1042,0.849,-6.37,-2.345
1772976491679.7366,-0.9845,-0.0999,-0.1054,0.814,-6.536,-2.433
1772976491695.7632,-0.9808,-0.099,-0.1089,0.901,-6.396,-2.467
1772976491695.7632,-0.9806,-0.1005,-0.1059,1.024,-6.562,-2.572
1772976491695.7632,-0.9827,-0.1007,-0.1067,0.814,-6.423,-2.45
1772976491695.7632,-0.9809,-0.1024,-0.1091,0.866,-6.23,-2.599
1772976491695.7632,-0.9798,-0.1055,-0.1103,0.954,-6.536,-2.607
1772976491695.7632,-0.9776,-0.1053,-0.112,0.963,-6.729,-2.607
1772976491695.7632,-0.979,-0.1046,-0.1112,0.796,-6.554,-2.389
1772976491695.7632,-0.977,-0.1048,-0.1105,0.875,-6.527,-2.257
1772976491695.7632,-0.9772,-0.1057,-0.1094,0.849,-6.598,-2.52
1772976491695.7632,-0.9777,-0.1061,-0.1099,0.963,-6.939,-2.538
1772976491695.7632,-0.9802,-0.1066,-0.1074,0.77,-6.982,-2.45
1772976491695.7632,-0.9806,-0.1096,-0.1078,0.892,-6.79,-2.511
1772976491695.7632,-0.9792,-0.1095,-0.1103,0.7,-7.175,-2.406
1772976491711.3354,-0.9773,-0.1108,-0.1112,0.796,-6.895,-2.257
1772976491711.3354,-0.9794,-0.1103,-0.1068,0.866,-7.166,-2.275
1772976491711.3354,-0.9808,-0.1097,-0.1053,0.831,-7.14,-2.1
1772976491711.3354,-0.9819,-0.1077,-0.1071,0.84,-6.956,-1.916
1772976491711.3354,-0.9792,-0.1102,-0.1046,0.971,-7.254,-1.96
1772976491711.3354,-0.9805,-0.1091,-0.105,0.98,-7.035,-1.96
1772976491711.3354,-0.9806,-0.1094,-0.1046,0.866,-7.009,-1.96
1772976491711.3354,-0.9811,-0.1082,-0.1044,1.199,-7.166,-1.969
1772976491711.3354,-0.9822,-0.1075,-0.1052,1.067,-6.974,-2.065
1772976491711.3354,-0.9792,-0.1111,-0.1071,1.409,-7.131,-2.336
1772976491711.3354,-0.9814,-0.111,-0.1099,1.251,-6.886,-1.995
1772976491711.3354,-0.9783,-0.1093,-0.1095,1.155,-7.026,-2.083
1772976491727.948,-0.9787,-0.1114,-0.1097,1.531,-6.974,-2.144
1772976491727.948,-0.9808,-0.113,-0.109,1.417,-7.07,-1.978
1772976491727.948,-0.9803,-0.1166,-0.1089,1.549,-6.904,-1.942
1772976491727.948,-0.9797,-0.1136,-0.1077,1.47,-7.079,-1.899
1772976491727.948,-0.9801,-0.1139,-0.1067,1.741,-6.939,-1.785
1772976491727.948,-0.9803,-0.1139,-0.1048,1.724,-6.895,-2.056
1772976491727.948,-0.9784,-0.1142,-0.102,1.881,-7.184,-1.846
1772976491727.948,-0.979,-0.1117,-0.1055,2.205,-7.359,-1.82
1772976491727.948,-0.9788,-0.1125,-0.1051,2.231,-6.851,-1.785
1772976491727.948,-0.9778,-0.1134,-0.1026,2.52,-6.746,-1.776
1772976491727.948,-0.9775,-0.1136,-0.1028,2.397,-6.781,-1.732
1772976491727.948,-0.9771,-0.1118,-0.1023,2.502,-6.781,-1.496
1772976491727.948,-0.9794,-0.1138,-0.1037,2.529,-6.606,-1.706
1772976491727.948,-0.9814,-0.1134,-0.103,2.809,-6.799,-1.741
1772976491742.9849,-0.98,-0.1148,-0.102,3.036,-6.615,-1.732
1772976491742.9849,-0.9788,-0.1174,-0.1036,3.054,-6.353,-1.68
1772976491742.9849,-0.9765,-0.1158,-0.1032,3.15,-6.492,-1.663
1772976491742.9849,-0.9773,-0.1131,-0.1073,3.089,-6.545,-1.715
1772976491742.9849,-0.9783,-0.1149,-0.1071,3.141,-6.195,-1.33
1772976491742.9849,-0.9799,-0.1122,-0.1054,2.914,-6.256,-1.531
1772976491742.9849,-0.9772,-0.1104,-0.1069,2.817,-6.291,-1.741
1772976491742.9849,-0.9761,-0.1125,-0.1079,2.975,-6.256,-1.584
1772976491742.9849,-0.9744,-0.1138,-0.1139,2.879,-6.256,-1.33
1772976491742.9849,-0.9769,-0.1121,-0.109,2.494,-6.064,-1.321
1772976491742.9849,-0.9827,-0.112,-0.1065,2.538,-6.169,-1.242
1772976491742.9849,-0.9819,-0.1089,-0.1082,2.564,-6.151,-1.505
1772976491758.638,-0.9795,-0.1098,-0.1084,2.38,-6.037,-1.496
1772976491758.638,-0.98,-0.1098,-0.1069,2.257,-6.186,-1.365
1772976491758.638,-0.9798,-0.1069,-0.1068,2.257,-5.959,-1.234
1772976491758.638,-0.9826,-0.1071,-0.1047,2.354,-5.854,-1.461
1772976491758.638,-0.9851,-0.1063,-0.1068,2.406,-5.854,-1.365
1772976491758.638,-0.9809,-0.1082,-0.1055,2.345,-5.915,-1.654
1772976491758.638,-0.9824,-0.1032,-0.1041,2.275,-5.862,-1.575
1772976491758.638,-0.9833,-0.1051,-0.1065,2.362,-5.897,-1.199
1772976491758.638,-0.9825,-0.1058,-0.1045,2.109,-5.827,-1.251
1772976491758.638,-0.9842,-0.1044,-0.1052,2.179,-5.801,-1.295
1772976491758.638,-0.9834,-0.1036,-0.1083,2.415,-5.574,-1.383
1772976491758.638,-0.9841,-0.1045,-0.1053,2.301,-5.504,-1.33
1772976491758.638,-0.9851,-0.1059,-0.1067,2.31,-6.081,-1.531
1772976491774.0122,-0.9842,-0.1041,-0.104,2.345,-5.862,-1.575
1772976491774.0122,-0.986,-0.1035,-0.1042,2.31,-5.661,-1.636
1772976491774.0122,-0.9869,-0.1065,-0.1061,2.502,-5.871,-1.645
1772976491774.0122,-0.9857,-0.104,-0.1083,2.284,-5.994,-1.68
1772976491774.0122,-0.9867,-0.1029,-0.1072,2.397,-5.889,-1.566
1772976491774.0122,-0.9862,-0.1037,-0.1071,2.494,-6.029,-1.899
1772976491774.0122,-0.9872,-0.1045,-0.1091,2.467,-6.186,-1.96
1772976491774.0122,-0.9869,-0.1057,-0.1111,2.38,-6.37,-1.89
1772976491774.0122,-0.9858,-0.1067,-0.1132,2.292,-6.475,-1.899
1772976491774.0122,-0.9827,-0.1068,-0.1093,2.301,-6.58,-2.039
1772976491774.0122,-0.9834,-0.1013,-0.1087,2.109,-6.562,-1.978
1772976491774.0122,-0.9848,-0.1026,-0.1049,2.109,-6.624,-1.82
1772976491789.8096,-0.9838,-0.1041,-0.1072,2.152,-6.659,-1.794
1772976491789.8096,-0.9855,-0.1028,-0.1086,2.126,-6.799,-1.899
1772976491789.8096,-0.9803,-0.1016,-0.1088,2.371,-7.131,-1.934
1772976491789.8096,-0.9809,-0.1022,-0.1062,2.546,-7.131,-1.873
1772976491789.8096,-0.9796,-0.1051,-0.1086,2.415,-7.385,-1.802
1772976491789.8096,-0.9786,-0.1042,-0.1065,2.152,-7.07,-1.942
1772976491789.8096,-0.9778,-0.103,-0.107,2.083,-6.886,-1.837
1772976491789.8096,-0.9775,-0.1043,-0.1018,1.873,-7.166,-1.89
1772976491789.8096,-0.9772,-0.1021,-0.1046,1.855,-7.009,-1.811
1772976491789.8096,-0.9752,-0.1028,-0.1064,2.004,-7.157,-1.811
1772976491789.8096,-0.9766,-0.0988,-0.1035,2.083,-7.332,-1.907
1772976491789.8096,-0.9784,-0.1011,-0.1048,2.056,-7.157,-1.864
1772976491789.8096,-0.9772,-0.101,-0.1024,2.135,-7.035,-1.978
1772976491804.9604,-0.9777,-0.1017,-0.1065,2.188,-7.184,-2.1
1772976491804.9604,-0.9772,-0.1028,-0.1038,2.152,-7.332,-2.135
1772976491804.9604,-0.977,-0.1024,-0.1077,2.17,-7.079,-2.152
1772976491804.9604,-0.9742,-0.1039,-0.1069,2.065,-7.061,-2.013
1772976491804.9604,-0.9728,-0.1033,-0.1026,2.013,-7.105,-2.1
1772976491804.9604,-0.9739,-0.1025,-0.0992,1.934,-7.175,-2.292
1772976491804.9604,-0.9762,-0.1013,-0.1007,1.96,-7.07,-2.345
1772976491804.9604,-0.9744,-0.1014,-0.1022,2.109,-7.035,-2.126
1772976491804.9604,-0.9737,-0.1003,-0.0989,1.934,-6.93,-2.319
1772976491804.9604,-0.9754,-0.0988,-0.1033,1.969,-6.659,-2.494
1772976491804.9604,-0.9721,-0.1025,-0.1057,1.724,-6.991,-2.555
1772976491804.9604,-0.9711,-0.101,-0.1075,1.741,-6.886,-2.441
1772976491820.7278,-0.9734,-0.1013,-0.1045,1.724,-6.982,-2.546
1772976491820.7278,-0.9748,-0.1,-0.0996,1.907,-7.07,-2.8
1772976491820.7278,-0.9714,-0.1025,-0.1029,1.951,-6.947,-2.791
1772976491820.7278,-0.9723,-0.1016,-0.1047,1.855,-6.991,-2.695
1772976491820.7278,-0.972,-0.103,-0.1036,1.759,-7.122,-2.809
1772976491820.7278,-0.9726,-0.1046,-0.1029,1.881,-7.009,-2.817
1772976491820.7278,-0.9722,-0.107,-0.1057,2.152,-7.096,-2.765
1772976491820.7278,-0.9683,-0.1049,-0.1075,2.004,-6.869,-2.853
1772976491820.7278,-0.9744,-0.1047,-0.1075,2.03,-6.702,-2.756
1772976491820.7278,-0.972,-0.1086,-0.1071,2.074,-6.843,-3.185
1772976491820.7278,-0.9716,-0.1099,-0.1021,2.292,-6.79,-3.098
1772976491820.7278,-0.9753,-0.1113,-0.0991,2.144,-7.018,-2.949
1772976491820.7278,-0.977,-0.1102,-0.1012,2.196,-6.737,-2.975
1772976491836.2588,-0.979,-0.112,-0.1068,2.091,-6.939,-2.844
1772976491836.2588,-0.9779,-0.11,-0.1042,2.135,-6.729,-2.66
1772976491836.2588,-0.9771,-0.1097,-0.1024,2.336,-7.018,-2.975
1772976491836.2588,-0.9778,-0.1112,-0.1056,2.188,-6.904,-2.791
1772976491836.2588,-0.9795,-0.108,-0.1041,2.328,-6.562,-2.783
1772976491836.2588,-0.9801,-0.1093,-0.1056,2.529,-6.624,-2.765
1772976491836.2588,-0.9801,-0.1108,-0.1089,2.336,-6.668,-2.669
1772976491836.2588,-0.9828,-0.1121,-0.1093,2.52,-6.65,-2.669
1772976491836.2588,-0.9805,-0.1107,-0.1092,2.319,-6.921,-2.371
1772976491836.2588,-0.9824,-0.1116,-0.1043,2.328,-6.86,-2.336
1772976491836.2588,-0.9852,-0.1135,-0.1058,2.66,-6.781,-2.572
1772976491836.2588,-0.9848,-0.1114,-0.1065,2.38,-6.659,-2.424
1772976491853.1292,-0.9866,-0.1108,-0.1077,2.231,-6.685,-2.616
1772976491853.1292,-0.9839,-0.1102,-0.1057,2.179,-6.414,-2.485
1772976491853.1292,-0.9848,-0.1123,-0.1064,1.978,-6.388,-2.345
1772976491853.1292,-0.9856,-0.1107,-0.1138,1.934,-6.562,-2.17
1772976491853.1292,-0.9875,-0.1086,-0.1093,1.846,-6.694,-2.161
1772976491853.1292,-0.9887,-0.1093,-0.1045,1.942,-6.606,-2.144
1772976491853.1292,-0.988,-0.1091,-0.1065,1.951,-6.834,-2.091
1772976491853.1292,-0.9878,-0.1075,-0.1059,1.61,-6.423,-1.899
1772976491853.1292,-0.9881,-0.1078,-0.1061,1.881,-6.423,-2.109
1772976491853.1292,-0.9893,-0.1049,-0.1072,2.039,-6.571,-1.995
1772976491853.1292,-0.9884,-0.1028,-0.1052,1.811,-6.51,-1.995
1772976491853.1292,-0.9888,-0.1048,-0.103,1.802,-6.317,-1.96
1772976491853.1292,-0.9901,-0.1047,-0.1042,1.969,-6.571,-1.942
1772976491853.1292,-0.9891,-0.1048,-0.1044,1.785,-6.694,-1.829
1772976491868.5364,-0.9869,-0.1013,-0.1047,1.575,-6.527,-1.899
1772976491868.5364,-0.9875,-0.1041,-0.102,1.505,-6.116,-1.82
1772976491868.5364,-0.9861,-0.1024,-0.1042,1.566,-6.44,-1.96
1772976491868.5364,-0.9862,-0.1041,-0.1047,1.654,-6.353,-2.047
1772976491868.5364,-0.9836,-0.1061,-0.1093,1.452,-6.265,-2.039
1772976491868.5364,-0.9802,-0.1058,-0.1079,1.47,-6.729,-1.995
1772976491868.5364,-0.9841,-0.1035,-0.1047,1.4,-6.641,-2.065
1772976491868.5364,-0.9822,-0.105,-0.1051,1.374,-6.562,-2.074
1772976491868.5364,-0.9854,-0.1066,-0.1024,1.391,-6.58,-2.135
1772976491868.5364,-0.9843,-0.103,-0.1021,1.409,-6.624,-2.292
1772976491868.5364,-0.9861,-0.1055,-0.1028,1.452,-6.335,-2.24
1772976491868.5364,-0.9812,-0.1033,-0.1067,1.488,-6.895,-2.284
1772976491868.5364,-0.9886,-0.1042,-0.1002,1.829,-6.545,-2.371
1772976491884.5034,-0.9867,-0.1051,-0.1015,1.846,-6.571,-2.362
1772976491884.5034,-0.9856,-0.1054,-0.1028,1.732,-6.414,-2.397
1772976491884.5034,-0.9835,-0.106,-0.1048,1.768,-6.388,-2.476
1772976491884.5034,-0.9883,-0.1067,-0.1099,1.995,-6.449,-2.555
1772976491884.5034,-0.9844,-0.1089,-0.1117,1.934,-6.772,-2.756
1772976491884.5034,-0.9822,-0.1074,-0.1122,1.89,-7.044,-2.634
1772976491884.5034,-0.9826,-0.1088,-0.1161,1.698,-6.982,-2.783
1772976491884.5034,-0.9834,-0.1094,-0.1136,1.575,-6.65,-2.686
1772976491884.5034,-0.9886,-0.1056,-0.1042,1.794,-6.694,-2.73
1772976491884.5034,-0.99,-0.1042,-0.1032,1.899,-6.93,-2.888
1772976491884.5034,-0.9884,-0.1053,-0.107,2.004,-7.044,-2.905
1772976491884.5034,-0.9891,-0.1089,-0.1035,1.899,-6.72,-3.098
1772976491884.5034,-0.9886,-0.1121,-0.0996,1.732,-6.878,-2.966
1772976491900.0254,-0.9888,-0.1105,-0.097,2.039,-6.878,-3.027
1772976491900.0254,-0.9898,-0.111,-0.0958,2.083,-6.974,-3.229
1772976491900.0254,-0.9902,-0.1119,-0.0951,2.135,-6.808,-3.237
1772976491900.0254,-0.9891,-0.1132,-0.0948,2.345,-6.571,-3.098
1772976491900.0254,-0.9837,-0.1163,-0.0972,2.284,-6.326,-2.73
1772976491900.0254,-0.9783,-0.1141,-0.0975,2.328,-6.353,-2.704
1772976491900.0254,-0.9821,-0.1161,-0.0913,2.783,-6.414,-2.695
1772976491900.0254,-0.9833,-0.1145,-0.0939,2.712,-6.702,-2.73
1772976491900.0254,-0.9816,-0.1193,-0.0922,2.94,-6.598,-2.958
1772976491900.0254,-0.9811,-0.1169,-0.0928,3.062,-6.431,-2.984
1772976491900.0254,-0.9812,-0.1191,-0.0922,2.861,-5.889,-2.651
1772976491900.0254,-0.982,-0.1194,-0.093,3.054,-5.705,-2.476
1772976491916.4556,-0.979,-0.1199,-0.0924,2.94,-5.723,-2.485
1772976491916.4556,-0.9782,-0.1159,-0.0945,2.914,-5.81,-2.231
1772976491916.4556,-0.9746,-0.1167,-0.0972,3.098,-5.539,-2.17
1772976491916.4556,-0.973,-0.1166,-0.0963,3.089,-5.53,-2.021
1772976491916.4556,-0.9745,-0.1175,-0.0983,3.027,-5.46,-1.873
1772976491916.4556,-0.9729,-0.1163,-0.1046,3.001,-5.53,-1.706
1772976491916.4556,-0.9726,-0.1182,-0.1032,3.167,-5.836,-1.794
1772976491916.4556,-0.9725,-0.1176,-0.1006,3.132,-5.915,-1.593
1772976491916.4556,-0.9736,-0.1163,-0.1016,3.036,-5.941,-1.435
1772976491916.4556,-0.9747,-0.1153,-0.1012,3.29,-5.871,-1.242
1772976491916.4556,-0.9748,-0.1161,-0.0973,3.185,-6.011,-1.225
1772976491916.4556,-0.9706,-0.1139,-0.0977,3.29,-6.072,-1.19
1772976491916.4556,-0.9724,-0.1128,-0.1028,3.115,-5.985,-1.032
1772976491916.4556,-0.9727,-0.1132,-0.1011,2.861,-6.02,-0.84
1772976491931.496,-0.9747,-0.1102,-0.0996,2.809,-6.3,-0.718
1772976491931.496,-0.9733,-0.1096,-0.0988,2.87,-6.282,-0.858
1772976491931.496,-0.9718,-0.1075,-0.0985,3.045,-6.134,-0.84
1772976491931.496,-0.9753,-0.1066,-0.0983,2.835,-6.046,-0.604
1772976491931.496,-0.9773,-0.1049,-0.0994,3.132,-6.099,-0.578
1772976491931.496,-0.9748,-0.1057,-0.1038,3.281,-6.125,-0.709
1772976491931.496,-0.9769,-0.1074,-0.1005,2.949,-5.81,-0.735
1772976491931.496,-0.9745,-0.105,-0.1013,3.001,-5.941,-0.429
1772976491931.496,-0.9755,-0.1077,-0.1012,3.001,-6.274,-0.586
1772976491931.496,-0.9735,-0.1043,-0.1039,2.958,-6.256,-0.446
1772976491931.496,-0.9735,-0.1037,-0.1028,2.721,-5.933,-0.42
1772976491931.496,-0.977,-0.1047,-0.099,2.748,-6.029,-0.718
1772976491948.056,-0.9778,-0.1061,-0.0949,2.888,-6.072,-0.613
1772976491948.056,-0.9783,-0.1038,-0.0956,2.835,-6.151,-0.613
1772976491948.056,-0.9795,-0.1027,-0.0935,2.748,-6.099,-0.621
1772976491948.056,-0.9779,-0.1037,-0.0972,2.678,-6.143,-0.656
1772976491948.056,-0.9801,-0.1041,-0.0945,2.739,-6.072,-0.805
1772976491948.056,-0.9809,-0.1036,-0.0944,2.896,-5.95,-0.84
1772976491948.056,-0.9819,-0.1036,-0.0926,2.888,-5.731,-0.945
1772976491948.056,-0.9817,-0.1031,-0.0935,3.01,-5.793,-0.954
1772976491948.056,-0.9809,-0.1017,-0.0924,3.237,-5.652,-0.927
1772976491948.056,-0.983,-0.1027,-0.089,3.141,-5.714,-1.146
1772976491948.056,-0.9819,-0.1013,-0.0891,2.905,-5.836,-1.312
1772976491948.056,-0.9836,-0.1022,-0.0884,3.098,-5.346,-1.295
1772976491948.056,-0.9808,-0.1042,-0.0905,3.01,-5.084,-1.531
1772976491963.61,-0.9824,-0.105,-0.0894,3.194,-5.128,-1.61
1772976491963.61,-0.9823,-0.1046,-0.0914,3.281,-5.232,-1.671
1772976491963.61,-0.9813,-0.1024,-0.09,3.194,-4.821,-1.68
1772976491963.61,-0.9822,-0.1044,-0.0944,3.141,-5.058,-1.837
1772976491963.61,-0.982,-0.1063,-0.0919,3.264,-4.97,-1.855
1772976491963.61,-0.9815,-0.1043,-0.09,3.369,-4.848,-2.056
1772976491963.61,-0.9807,-0.1052,-0.0939,3.369,-5.022,-2.126
1772976491963.61,-0.9789,-0.1049,-0.096,3.308,-4.883,-2.231
1772976491963.61,-0.9773,-0.1052,-0.0955,3.369,-5.049,-2.223
1772976491963.61,-0.9797,-0.1047,-0.0966,3.579,-5.145,-2.257
1772976491963.61,-0.9781,-0.1059,-0.0989,3.474,-5.355,-2.24
1772976491963.61,-0.978,-0.1038,-0.0984,3.474,-5.093,-2.266
1772976491963.61,-0.9794,-0.1075,-0.0985,3.447,-5.268,-2.389
1772976491979.6672,-0.9797,-0.1057,-0.0994,3.237,-5.372,-2.354
1772976491979.6672,-0.9786,-0.1063,-0.0991,3.395,-5.617,-2.546
1772976491979.6672,-0.98,-0.1068,-0.1022,3.561,-5.679,-2.52
1772976491979.6672,-0.9797,-0.1082,-0.1035,3.456,-5.915,-2.607
1772976491979.6672,-0.9778,-0.108,-0.102,3.29,-5.749,-2.739
1772976491979.6672,-0.9804,-0.1083,-0.1019,3.299,-5.827,-2.861
1772976491979.6672,-0.9793,-0.1075,-0.1036,3.15,-5.845,-2.59
1772976491979.6672,-0.9784,-0.1085,-0.1055,3.229,-6.151,-2.651
1772976491979.6672,-0.9778,-0.1082,-0.1063,3.159,-6.011,-2.494
1772976491979.6672,-0.9785,-0.1085,-0.1061,3.019,-6.353,-2.459
1772976491979.6672,-0.9776,-0.1102,-0.1075,3.001,-6.169,-2.433
1772976491979.6672,-0.9791,-0.1086,-0.1057,2.949,-6.116,-2.485
1772976491979.6672,-0.9801,-0.108,-0.1044,2.73,-6.16,-2.634
1772976491995.746,-0.9799,-0.11,-0.1077,2.835,-6.37,-2.52
1772976491995.746,-0.9814,-0.1089,-0.105,2.704,-6.344,-2.38
1772976491995.746,-0.9826,-0.1114,-0.1051,2.66,-6.326,-2.467
1772976491995.746,-0.9834,-0.1097,-0.1064,2.546,-6.457,-2.546
1772976491995.746,-0.983,-0.1085,-0.1044,2.748,-6.641,-2.572
1772976491995.746,-0.9851,-0.1113,-0.1078,2.774,-6.519,-2.328
1772976491995.746,-0.986,-0.1094,-0.1083,2.73,-6.492,-2.433
1772976491995.746,-0.987,-0.11,-0.1063,2.704,-6.51,-2.59
1772976491995.746,-0.9866,-0.1096,-0.106,2.853,-6.808,-2.695
1772976491995.746,-0.9869,-0.1112,-0.1109,2.774,-6.414,-2.459
1772976491995.746,-0.9861,-0.1108,-0.1103,2.284,-6.624,-2.371
1772976491995.746,-0.9884,-0.1137,-0.1103,2.502,-6.641,-2.616
1772976491995.746,-0.989,-0.1122,-0.1099,2.529,-6.711,-2.721
1772976492011.3362,-0.991,-0.1119,-0.1078,2.765,-6.65,-2.511
1772976492011.3362,-0.9908,-0.1145,-0.1088,2.678,-6.659,-2.607
1772976492011.3362,-0.9891,-0.1122,-0.1065,2.625,-6.475,-2.817
1772976492011.3362,-0.9908,-0.1116,-0.1063,2.984,-6.589,-2.511
1772976492011.3362,-0.9916,-0.1132,-0.1064,3.098,-6.702,-2.835
1772976492011.3362,-0.9903,-0.1116,-0.1079,3.001,-6.729,-2.625
1772976492011.3362,-0.9902,-0.1146,-0.1083,3.08,-6.851,-2.607
1772976492011.3362,-0.9897,-0.115,-0.1099,3.185,-6.562,-2.748
1772976492011.3362,-0.99,-0.1134,-0.1064,3.211,-6.659,-2.52
1772976492011.3362,-0.9893,-0.115,-0.1084,3.316,-6.694,-2.625
1772976492011.3362,-0.9875,-0.1159,-0.1093,3.386,-6.86,-2.415
1772976492011.3362,-0.9907,-0.1167,-0.1078,3.272,-6.606,-2.433
1772976492026.4827,-0.9903,-0.1172,-0.1081,3.255,-6.816,-2.572
1772976492026.4827,-0.9887,-0.1144,-0.1078,3.334,-6.641,-2.476
1772976492026.4827,-0.9883,-0.1148,-0.1078,3.229,-6.694,-2.424
1772976492026.4827,-0.9883,-0.1149,-0.1041,3.413,-6.886,-2.319
1772976492026.4827,-0.9901,-0.1155,-0.1058,3.605,-6.79,-2.433
1772976492026.4827,-0.9893,-0.1133,-0.1078,3.553,-6.685,-2.284
1772976492026.4827,-0.9883,-0.1139,-0.1061,3.176,-6.659,-2.257
1772976492026.4827,-0.9871,-0.1107,-0.1073,3.281,-6.72,-2.179
1772976492026.4827,-0.99,-0.1154,-0.1089,3.15,-6.615,-2.17
1772976492026.4827,-0.9884,-0.1158,-0.1086,3.299,-6.58,-2.056
1772976492026.4827,-0.9863,-0.1135,-0.108,3.404,-6.501,-2.03
1772976492026.4827,-0.9881,-0.1139,-0.1065,3.237,-6.694,-1.951
1772976492026.4827,-0.9856,-0.1136,-0.1044,3.299,-6.869,-1.89
1772976492041.7012,-0.9833,-0.11,-0.1036,3.272,-6.659,-1.776
1772976492041.7012,-0.9817,-0.113,-0.1051,3.211,-6.326,-1.873
1772976492041.7012,-0.9839,-0.1131,-0.1054,3.255,-6.51,-1.907
1772976492041.7012,-0.9793,-0.108,-0.1048,3.272,-6.519,-1.837
1772976492041.7012,-0.9794,-0.109,-0.1028,2.87,-6.423,-1.776
1772976492041.7012,-0.9814,-0.1085,-0.1008,3.255,-6.772,-1.776
1772976492041.7012,-0.9795,-0.1082,-0.1025,3.246,-6.562,-1.575
1772976492041.7012,-0.9803,-0.1068,-0.1023,3.176,-6.282,-1.514
1772976492041.7012,-0.9799,-0.1065,-0.0988,3.167,-5.994,-1.689
1772976492041.7012,-0.978,-0.106,-0.1008,3.106,-6.353,-1.671
1772976492041.7012,-0.9782,-0.1066,-0.0992,3.115,-6.344,-1.636
1772976492041.7012,-0.9742,-0.107,-0.0987,3.229,-6.309,-1.785
1772976492057.257,-0.9772,-0.1053,-0.1015,3.264,-6.16,-1.715
1772976492057.257,-0.975,-0.1054,-0.0977,3.246,-6.143,-1.934
1772976492057.257,-0.976,-0.1064,-0.0977,3.176,-5.968,-2.144
1772976492057.257,-0.9753,-0.1063,-0.0978,3.203,-5.652,-1.995
1772976492057.257,-0.9743,-0.1084,-0.0955,3.176,-5.862,-1.925
1772976492057.257,-0.9742,-0.1083,-0.0945,3.141,-5.705,-1.811
1772976492057.257,-0.9725,-0.1067,-0.095,3.124,-5.53,-2.109
1772976492057.257,-0.9733,-0.1082,-0.0919,3.351,-5.329,-2.284
1772976492057.257,-0.9735,-0.1085,-0.0964,3.526,-5.303,-2.345
1772976492057.257,-0.9701,-0.1064,-0.0924,3.255,-5.451,-2.292
1772976492057.257,-0.9697,-0.1059,-0.0949,3.377,-5.381,-2.371
1772976492057.257,-0.9697,-0.1102,-0.0931,3.211,-5.338,-2.328
1772976492057.257,-0.9709,-0.108,-0.0935,3.369,-5.005,-2.362
1772976492072.8018,-0.9731,-0.1099,-0.0922,3.334,-5.197,-2.214
1772976492072.8018,-0.9715,-0.1088,-0.0908,3.456,-4.952,-2.161
1772976492072.8018,-0.9701,-0.1058,-0.0935,3.518,-4.944,-2.223
1772976492072.8018,-0.9731,-0.1064,-0.0949,3.185,-4.926,-2.284
1772976492072.8018,-0.9726,-0.1086,-0.0932,3.5,-4.883,-2.546
1772976492072.8018,-0.9743,-0.1085,-0.094,3.614,-4.638,-2.433
1772976492072.8018,-0.9748,-0.1071,-0.0941,3.544,-4.707,-2.205
1772976492072.8018,-0.9765,-0.1062,-0.0922,3.553,-4.996,-2.292
1772976492072.8018,-0.9767,-0.1062,-0.0949,3.36,-4.489,-2.38
1772976492072.8018,-0.9783,-0.1078,-0.095,3.535,-4.603,-2.546
1772976492072.8018,-0.9787,-0.1085,-0.0942,3.754,-4.952,-2.721
1772976492072.8018,-0.9772,-0.1073,-0.0962,3.728,-4.856,-2.66
1772976492088.3833,-0.979,-0.1068,-0.0956,3.894,-4.62,-2.502
1772976492088.3833,-0.9788,-0.1099,-0.0977,3.868,-4.786,-2.616
1772976492088.3833,-0.9792,-0.1057,-0.0963,3.841,-4.786,-2.52
1772976492088.3833,-0.9792,-0.1081,-0.0973,3.64,-4.725,-2.643
1772976492088.3833,-0.9808,-0.1091,-0.0967,3.631,-4.83,-2.45
1772976492088.3833,-0.9792,-0.111,-0.0992,3.666,-4.821,-2.572
1772976492088.3833,-0.9808,-0.1092,-0.0959,3.728,-5.11,-2.38
1772976492088.3833,-0.984,-0.1082,-0.0953,3.719,-4.909,-2.371
1772976492088.3833,-0.9815,-0.1094,-0.0947,3.841,-4.979,-2.511
1772976492088.3833,-0.983,-0.1083,-0.0973,3.868,-5.136,-2.354
1772976492088.3833,-0.9854,-0.1084,-0.0961,3.841,-4.97,-2.564
1772976492088.3833,-0.9838,-0.1083,-0.0944,4.244,-5.11,-2.529
1772976492088.3833,-0.9832,-0.1064,-0.0975,4.296,-5.294,-2.572
1772976492104.2305,-0.9843,-0.1096,-0.0979,4.375,-5.425,-2.485
1772976492104.2305,-0.9842,-0.1108,-0.0978,4.567,-5.784,-2.678
1772976492104.2305,-0.9848,-0.1118,-0.0958,4.576,-5.696,-2.389
1772976492104.2305,-0.985,-0.1122,-0.0973,4.296,-5.644,-2.38
1772976492104.2305,-0.9851,-0.1118,-0.0996,4.331,-5.67,-2.336
1772976492104.2305,-0.9839,-0.1096,-0.0956,4.524,-5.539,-2.144
1772976492104.2305,-0.9851,-0.1103,-0.0949,4.384,-5.854,-2.275
1772976492104.2305,-0.9841,-0.1111,-0.0969,4.638,-5.801,-2.319
1772976492104.2305,-0.9866,-0.1108,-0.0953,4.751,-5.959,-2.126
1772976492104.2305,-0.9862,-0.1089,-0.0978,4.777,-6.169,-1.995
1772976492104.2305,-0.9872,-0.1121,-0.0971,4.681,-5.924,-1.907
1772976492104.2305,-0.9886,-0.111,-0.0971,4.716,-6.151,-2.013
1772976492104.2305,-0.9889,-0.111,-0.0993,4.497,-5.976,-2.17
1772976492119.7786,-0.9873,-0.1083,-0.0999,4.655,-6.265,-1.899
1772976492119.7786,-0.987,-0.1074,-0.0975,4.681,-6.204,-1.706
1772976492119.7786,-0.9855,-0.1077,-0.0983,4.497,-5.915,-1.776
1772976492119.7786,-0.9884,-0.1066,-0.1014,4.322,-6.02,-1.68
1772976492119.7786,-0.986,-0.1049,-0.1012,4.585,-6.16,-1.593
1772976492119.7786,-0.9866,-0.1072,-0.1016,4.296,-6.239,-1.671
1772976492119.7786,-0.9862,-0.1042,-0.1022,4.34,-6.064,-1.627
1772976492119.7786,-0.9852,-0.1032,-0.1022,4.375,-5.933,-1.435
1772976492119.7786,-0.9854,-0.105,-0.1024,4.06,-5.994,-1.444
1772976492119.7786,-0.9872,-0.1024,-0.1029,4.008,-5.915,-1.689
1772976492119.7786,-0.9844,-0.1025,-0.1038,4.095,-6.046,-1.619
1772976492119.7786,-0.9825,-0.1,-0.1023,4.139,-6.379,-1.75
1772976492135.3186,-0.9817,-0.1004,-0.1016,3.99,-5.976,-1.663
1772976492135.3186,-0.9809,-0.1,-0.1016,3.763,-5.854,-1.558
1772976492135.3186,-0.9795,-0.1011,-0.1035,3.771,-5.854,-1.593
1772976492135.3186,-0.9794,-0.1006,-0.1019,3.675,-5.968,-1.724
1772976492135.3186,-0.9797,-0.1047,-0.1027,3.719,-5.819,-1.75
1772976492135.3186,-0.9758,-0.1015,-0.1038,3.92,-5.819,-1.645
1772976492135.3186,-0.9761,-0.1038,-0.1023,3.894,-6.099,-1.584
1772976492135.3186,-0.9753,-0.1031,-0.1038,3.71,-5.81,-1.663
1772976492135.3186,-0.9745,-0.1046,-0.1041,3.649,-5.871,-1.601
1772976492135.3186,-0.975,-0.107,-0.1042,3.29,-6.055,-1.61
1772976492135.3186,-0.9756,-0.1033,-0.1059,3.474,-5.766,-1.698
1772976492135.3186,-0.9733,-0.1048,-0.1042,3.36,-5.976,-1.531
1772976492135.3186,-0.9733,-0.1069,-0.1018,3.439,-5.766,-1.575
1772976492151.3477,-0.9728,-0.1052,-0.1031,3.544,-5.994,-1.68
1772976492151.3477,-0.971,-0.1066,-0.1035,3.605,-6.011,-1.593
1772976492151.3477,-0.9716,-0.1085,-0.106,3.29,-5.749,-1.785
1772976492151.3477,-0.9704,-0.1083,-0.1053,3.194,-5.766,-1.802
1772976492151.3477,-0.9723,-0.1071,-0.1038,3.132,-5.626,-1.837
1772976492151.3477,-0.9725,-0.1074,-0.106,3.141,-5.688,-1.978
1772976492151.3477,-0.972,-0.1093,-0.1046,3.141,-5.495,-1.951
1772976492151.3477,-0.969,-0.1097,-0.1033,3.211,-5.486,-1.995
1772976492151.3477,-0.9704,-0.1108,-0.104,2.756,-5.486,-1.951
1772976492151.3477,-0.9704,-0.1113,-0.1044,3.22,-5.626,-2.091
1772976492151.3477,-0.9697,-0.1081,-0.1039,3.027,-5.486,-2.03
1772976492151.3477,-0.9674,-0.1084,-0.1071,2.958,-5.416,-1.925
1772976492151.3477,-0.9694,-0.1094,-0.1068,2.949,-5.355,-1.995
1772976492167.3784,-0.9703,-0.108,-0.1042,2.94,-5.355,-1.96
1772976492167.3784,-0.9675,-0.1103,-0.1048,2.922,-5.39,-2.065
1772976492167.3784,-0.9684,-0.1095,-0.1028,3.062,-5.591,-2.021
1772976492167.3784,-0.9698,-0.1088,-0.1044,2.949,-5.381,-2.109
1772976492167.3784,-0.9692,-0.1079,-0.1029,3.045,-5.425,-2.249
1772976492167.3784,-0.9674,-0.1073,-0.105,2.712,-5.425,-2.126
1772976492167.3784,-0.97,-0.1086,-0.1027,3.027,-5.407,-2.223
1772976492167.3784,-0.97,-0.1074,-0.1053,2.809,-5.381,-2.179
1772976492167.3784,-0.9709,-0.1083,-0.1017,2.712,-5.303,-2.389
1772976492167.3784,-0.9711,-0.1085,-0.1038,3.001,-5.241,-2.424
1772976492167.3784,-0.9729,-0.1074,-0.102,2.686,-5.285,-2.459
1772976492167.3784,-0.9758,-0.1085,-0.0995,2.564,-5.381,-2.362
1772976492167.3784,-0.9759,-0.1096,-0.1013,2.826,-5.416,-2.686
1772976492182.933,-0.9756,-0.1124,-0.1011,2.922,-5.355,-2.634
1772976492182.933,-0.9762,-0.1108,-0.1009,2.739,-5.434,-2.625
1772976492182.933,-0.9754,-0.11,-0.1046,2.791,-5.381,-2.467
1772976492182.933,-0.9753,-0.1108,-0.1036,2.922,-5.206,-2.485
1772976492182.933,-0.9742,-0.1115,-0.1025,2.888,-5.075,-2.45
1772976492182.933,-0.9752,-0.1135,-0.1023,2.958,-5.04,-2.669
1772976492182.933,-0.9762,-0.1149,-0.1035,3.132,-4.987,-2.555
1772976492182.933,-0.9755,-0.1147,-0.1037,2.853,-5.084,-2.433
1772976492182.933,-0.9758,-0.1147,-0.1056,3.106,-5.311,-2.625
1772976492182.933,-0.9778,-0.1135,-0.1019,3.203,-5.058,-2.634
1772976492182.933,-0.9786,-0.1144,-0.1016,3.176,-5.128,-2.502
1772976492182.933,-0.9781,-0.1146,-0.1006,3.054,-5.154,-2.397
1772976492198.98,-0.9782,-0.1135,-0.1019,3.106,-5.268,-2.266
1772976492198.98,-0.9789,-0.1172,-0.099,3.22,-5.329,-2.205
1772976492198.98,-0.977,-0.1136,-0.1007,3.255,-5.014,-2.17
1772976492198.98,-0.9796,-0.1167,-0.1,3.526,-5.224,-2.59
1772976492198.98,-0.9788,-0.1191,-0.1015,3.351,-5.136,-2.433
1772976492198.98,-0.9795,-0.1176,-0.1017,3.395,-5.162,-2.441
1772976492198.98,-0.9792,-0.118,-0.1013,3.377,-5.329,-2.476
1772976492198.98,-0.9787,-0.1188,-0.0975,3.465,-5.276,-2.345
1772976492198.98,-0.9806,-0.1192,-0.1033,3.526,-5.206,-2.249
1772976492198.98,-0.98,-0.1186,-0.1,3.264,-4.961,-2.214
1772976492198.98,-0.9817,-0.124,-0.0991,3.404,-5.197,-2.371
1772976492198.98,-0.985,-0.1227,-0.098,3.526,-5.346,-2.205
1772976492198.98,-0.9869,-0.1229,-0.0982,3.719,-5.241,-1.916
1772976492214.5068,-0.9876,-0.1228,-0.0972,3.456,-5.285,-2.152
1772976492214.5068,-0.9879,-0.1224,-0.0966,3.482,-5.338,-2.205
1772976492214.5068,-0.9888,-0.1236,-0.0997,3.614,-5.171,-1.96
1772976492214.5068,-0.9894,-0.1222,-0.1002,3.596,-4.935,-2.091
1772976492214.5068,-0.9923,-0.1204,-0.1002,3.623,-4.944,-2.144
1772976492214.5068,-0.9919,-0.1218,-0.0979,3.728,-4.786,-2.31
1772976492214.5068,-0.9897,-0.1208,-0.1006,3.859,-4.952,-1.942
1772976492214.5068,-0.9906,-0.1205,-0.103,3.806,-4.952,-1.785
1772976492214.5068,-0.9909,-0.121,-0.1041,4.043,-5.145,-2.004
1772976492214.5068,-0.9927,-0.1229,-0.1056,3.789,-4.891,-2.065
1772976492214.5068,-0.9917,-0.12,-0.1036,3.99,-5.101,-1.82
1772976492214.5068,-0.9921,-0.12,-0.1041,4.095,-5.18,-1.934
1772976492214.5068,-0.9914,-0.1186,-0.1048,4.183,-5.329,-1.995
1772976492230.0925,-0.9922,-0.1196,-0.1063,4.235,-4.935,-2.021
1772976492230.0925,-0.9927,-0.1176,-0.1072,4.095,-5.197,-1.82
1772976492230.0925,-0.9931,-0.1146,-0.1061,4.077,-5.224,-1.829
1772976492230.0925,-0.9902,-0.1146,-0.1045,4.226,-5.39,-1.899
1772976492230.0925,-0.9896,-0.1141,-0.1042,4.41,-5.11,-1.951
1772976492230.0925,-0.9892,-0.1115,-0.104,4.174,-5.303,-1.794
1772976492230.0925,-0.9897,-0.114,-0.1041,3.981,-5.442,-1.916
1772976492230.0925,-0.9909,-0.1129,-0.105,4.279,-5.513,-1.899
1772976492230.0925,-0.9903,-0.1127,-0.1055,4.2,-5.355,-1.759
1772976492230.0925,-0.9888,-0.1134,-0.1031,4.043,-5.688,-2.004
1772976492230.0925,-0.9897,-0.1127,-0.1027,4.13,-5.784,-1.986
1772976492230.0925,-0.9891,-0.1107,-0.1052,4.104,-5.513,-1.969
1772976492230.0925,-0.9858,-0.1127,-0.103,4.043,-5.162,-2.1
1772976492245.649,-0.9867,-0.1118,-0.1031,3.99,-5.434,-1.925
1772976492245.649,-0.9855,-0.1118,-0.1025,4.051,-5.486,-1.96
1772976492245.649,-0.9861,-0.1144,-0.1039,3.964,-5.162,-1.829
1772976492245.649,-0.9833,-0.1135,-0.1028,3.911,-5.215,-1.785
1772976492245.649,-0.9826,-0.1118,-0.1037,4.043,-5.014,-1.768
1772976492245.649,-0.9816,-0.1107,-0.1009,3.806,-5.128,-1.479
1772976492245.649,-0.9792,-0.1125,-0.1019,3.929,-5.224,-1.409
1772976492245.649,-0.9818,-0.1124,-0.1033,3.911,-5.189,-1.452
1772976492245.649,-0.9814,-0.112,-0.0997,3.736,-5.197,-1.242
1772976492245.649,-0.9798,-0.1096,-0.1031,3.57,-5.434,-1.321
1772976492245.649,-0.9795,-0.112,-0.1022,3.806,-5.46,-1.242
1772976492245.649,-0.9817,-0.1095,-0.1019,3.833,-5.093,-1.164
1772976492261.6934,-0.9812,-0.1098,-0.1015,3.728,-5.049,-1.216
1772976492261.6934,-0.9828,-0.1079,-0.0996,3.369,-5.355,-1.085
1772976492261.6934,-0.9815,-0.1089,-0.1028,3.386,-5.049,-0.98
1772976492261.6934,-0.9817,-0.1087,-0.0985,3.509,-5.031,-1.216
1772976492261.6934,-0.9815,-0.1083,-0.0994,3.308,-4.856,-1.234
1772976492261.6934,-0.9823,-0.1078,-0.0977,3.124,-4.769,-1.225
1772976492261.6934,-0.9798,-0.108,-0.0984,3.115,-4.839,-0.98
1772976492261.6934,-0.979,-0.1071,-0.1006,3.124,-4.821,-1.006
1772976492261.6934,-0.9812,-0.1058,-0.1002,2.966,-4.839,-1.12
1772976492261.6934,-0.9791,-0.105,-0.1,2.896,-4.839,-1.059
1772976492261.6934,-0.982,-0.1052,-0.1022,3.159,-4.812,-0.831
1772976492261.6934,-0.9781,-0.1051,-0.1014,3.062,-4.935,-0.866
1772976492261.6934,-0.9794,-0.1047,-0.1035,3.036,-4.751,-1.085
1772976492277.2532,-0.9806,-0.106,-0.103,2.949,-4.603,-0.998
1772976492277.2532,-0.9793,-0.105,-0.1013,3.027,-4.681,-1.103
1772976492277.2532,-0.9808,-0.1039,-0.1039,2.791,-4.611,-1.164
1772976492277.2532,-0.9784,-0.1041,-0.1029,2.686,-4.646,-1.137
1772976492277.2532,-0.9789,-0.1039,-0.1008,3.027,-4.926,-1.33
1772976492277.2532,-0.9805,-0.1043,-0.1046,2.931,-4.926,-1.155
1772976492277.2532,-0.9812,-0.1032,-0.1049,2.739,-5.171,-1.137
1772976492277.2532,-0.9818,-0.1033,-0.1023,2.669,-4.97,-1.094
1772976492277.2532,-0.9769,-0.1021,-0.1053,2.564,-5.04,-1.199
