Time_ms,ax,ay,az,gx,gy,gz
1772934800282.2983,0.0178,-0.5302,-0.8196,4.34,-4.638,-1.96
1772934800282.2983,0.0192,-0.5312,-0.8209,4.296,-4.287,-1.864
1772934800282.2983,0.0212,-0.5328,-0.8198,4.156,-4.13,-1.916
1772934800282.2983,0.0232,-0.5302,-0.8233,3.999,-4.261,-1.802
1772934800282.2983,0.0206,-0.5312,-0.8199,4.279,-4.279,-1.811
1772934800282.2983,0.0211,-0.5312,-0.8203,4.34,-4.095,-1.654
1772934800282.2983,0.0229,-0.5335,-0.8183,4.322,-4.043,-1.82
1772934800282.2983,0.0203,-0.5336,-0.8165,4.41,-3.973,-1.601
1772934800282.2983,0.0227,-0.5338,-0.8212,4.008,-4.165,-1.514
1772934800282.2983,0.022,-0.532,-0.8164,4.331,-4.27,-1.522
1772934800282.2983,0.0208,-0.5337,-0.8217,4.699,-3.806,-1.768
1772934800282.2983,0.0218,-0.5354,-0.821,4.655,-4.287,-1.89
1772934800282.2983,0.0225,-0.535,-0.8217,4.751,-4.226,-1.575
1772934800282.2983,0.0254,-0.5352,-0.8217,4.707,-4.034,-1.619
1772934800297.3354,0.0224,-0.5358,-0.8209,4.585,-4.016,-1.601
1772934800297.3354,0.0245,-0.5356,-0.8234,4.839,-4.025,-1.505
1772934800297.3354,0.0201,-0.5361,-0.8233,5.232,-4.008,-1.549
1772934800297.3354,0.0231,-0.535,-0.8228,4.926,-4.13,-1.654
1772934800297.3354,0.0225,-0.5321,-0.8208,4.734,-3.78,-1.61
1772934800297.3354,0.0203,-0.5348,-0.8215,5.136,-3.666,-1.61
1772934800297.3354,0.0207,-0.5334,-0.8237,5.162,-3.868,-1.768
1772934800297.3354,0.0188,-0.5341,-0.8209,5.049,-4.043,-1.776
1772934800297.3354,0.0187,-0.5353,-0.8229,5.442,-4.077,-1.575
1772934800297.3354,0.0182,-0.5341,-0.822,5.031,-3.78,-1.584
1772934800297.3354,0.018,-0.5348,-0.825,4.891,-3.771,-1.522
1772934800297.3354,0.0162,-0.535,-0.825,5.425,-4.025,-1.75
1772934800312.9033,0.0184,-0.5355,-0.82,5.197,-4.104,-1.654
1772934800312.9033,0.0154,-0.5337,-0.8226,5.04,-3.833,-1.549
1772934800312.9033,0.0156,-0.535,-0.8223,5.11,-3.771,-1.505
1772934800312.9033,0.0159,-0.5353,-0.8217,5.285,-3.964,-1.829
1772934800312.9033,0.0163,-0.5342,-0.8244,5.303,-4.279,-1.942
1772934800312.9033,0.0148,-0.5352,-0.8231,5.294,-4.27,-1.829
1772934800312.9033,0.0137,-0.5352,-0.8211,5.285,-4.34,-1.785
1772934800312.9033,0.0143,-0.5361,-0.8233,4.909,-4.069,-1.549
1772934800312.9033,0.0159,-0.5339,-0.823,4.918,-3.99,-1.759
1772934800312.9033,0.0143,-0.5348,-0.8209,5.162,-3.885,-1.724
1772934800312.9033,0.0134,-0.5347,-0.8236,5.066,-4.086,-1.706
1772934800312.9033,0.0141,-0.5348,-0.8225,4.918,-3.964,-1.881
1772934800329.3047,0.0143,-0.534,-0.8221,4.725,-3.868,-1.829
1772934800329.3047,0.011,-0.5345,-0.8254,4.795,-4.06,-1.855
1772934800329.3047,0.0117,-0.5364,-0.8209,4.909,-4.051,-1.916
1772934800329.3047,0.0127,-0.5364,-0.8248,4.707,-4.209,-1.934
1772934800329.3047,0.0112,-0.5389,-0.8256,4.769,-4.384,-1.829
1772934800329.3047,0.0107,-0.5373,-0.8247,4.786,-4.016,-2.214
1772934800329.3047,0.0117,-0.5376,-0.8251,4.839,-4.095,-2.126
1772934800329.3047,0.0107,-0.5352,-0.8261,5.022,-4.559,-1.881
1772934800329.3047,0.0109,-0.5366,-0.8259,4.742,-4.401,-1.82
1772934800329.3047,0.0093,-0.5377,-0.8259,4.786,-4.428,-1.899
1772934800329.3047,0.0088,-0.5358,-0.8262,4.883,-3.973,-1.864
1772934800329.3047,0.0079,-0.5354,-0.8242,4.786,-4.191,-2.047
1772934800329.3047,0.0076,-0.5366,-0.8275,4.734,-4.218,-1.759
1772934800329.3047,0.0096,-0.5361,-0.8278,4.76,-4.322,-1.724
1772934800344.839,0.0078,-0.537,-0.8287,4.603,-4.287,-1.776
1772934800344.839,0.0096,-0.5355,-0.8278,4.463,-3.999,-1.531
1772934800344.839,0.0097,-0.5358,-0.8264,4.638,-3.911,-1.855
1772934800344.839,0.0097,-0.539,-0.8266,4.559,-3.797,-1.837
1772934800344.839,0.0088,-0.5405,-0.8275,4.401,-3.824,-1.671
1772934800344.839,0.0073,-0.5388,-0.8247,4.296,-3.763,-1.671
1772934800344.839,0.0076,-0.5419,-0.828,4.55,-3.885,-1.794
1772934800344.839,0.0098,-0.5392,-0.8303,4.375,-3.973,-1.566
1772934800344.839,0.009,-0.5394,-0.8286,4.2,-4.069,-1.768
1772934800344.839,0.0077,-0.5378,-0.8278,4.428,-4.06,-1.444
1772934800344.839,0.0109,-0.5366,-0.8293,4.218,-3.92,-1.111
1772934800344.839,0.0104,-0.5373,-0.8301,4.034,-4.051,-1.094
1772934800360.5745,0.0107,-0.5367,-0.8284,3.815,-3.929,-1.155
1772934800360.5745,0.0111,-0.5342,-0.8266,4.008,-4.034,-1.173
1772934800360.5745,0.0112,-0.5372,-0.8283,4.008,-4.314,-1.137
1772934800360.5745,0.0117,-0.535,-0.8301,4.13,-3.78,-0.884
1772934800360.5745,0.0116,-0.5357,-0.8253,4.025,-3.911,-0.989
1772934800360.5745,0.0136,-0.5344,-0.8245,3.85,-4.104,-0.963
1772934800360.5745,0.013,-0.5368,-0.8238,3.605,-3.71,-0.875
1772934800360.5745,0.015,-0.5383,-0.8241,3.675,-3.946,-1.094
1772934800360.5745,0.0142,-0.5363,-0.8246,3.649,-3.973,-1.024
1772934800360.5745,0.0136,-0.5374,-0.8198,4.008,-3.92,-1.225
1772934800360.5745,0.0184,-0.5392,-0.8207,4.069,-4.034,-1.208
1772934800360.5745,0.0146,-0.5383,-0.8228,3.999,-4.287,-0.945
1772934800360.5745,0.0171,-0.5394,-0.819,3.815,-4.13,-1.076
1772934800376.253,0.0148,-0.5396,-0.8176,3.623,-3.946,-0.971
1772934800376.253,0.0164,-0.5397,-0.8184,3.605,-3.824,-0.892
1772934800376.253,0.019,-0.539,-0.8179,3.701,-4.016,-0.866
1772934800376.253,0.0222,-0.5425,-0.815,3.789,-4.27,-1.032
1772934800376.253,0.0213,-0.5402,-0.8164,3.797,-4.043,-1.103
1772934800376.253,0.0215,-0.5392,-0.816,3.692,-3.797,-0.954
1772934800376.253,0.0211,-0.5373,-0.819,3.789,-3.64,-0.963
1772934800376.253,0.0233,-0.5384,-0.8151,3.719,-3.815,-0.805
1772934800376.253,0.0218,-0.5374,-0.8147,3.736,-3.797,-0.709
1772934800376.253,0.0249,-0.538,-0.8132,3.78,-3.815,-1.067
1772934800376.253,0.0257,-0.5398,-0.8147,3.78,-3.894,-0.823
1772934800376.253,0.0237,-0.5384,-0.812,3.763,-3.824,-1.164
1772934800376.253,0.0229,-0.5386,-0.8158,3.885,-3.684,-0.77
1772934800392.9763,0.0239,-0.5385,-0.8126,4.112,-3.745,-0.831
1772934800392.9763,0.0256,-0.539,-0.8119,3.902,-3.824,-1.015
1772934800392.9763,0.021,-0.5374,-0.8135,3.964,-3.789,-0.875
1772934800392.9763,0.0228,-0.5365,-0.815,4.13,-4.095,-1.094
1772934800392.9763,0.0207,-0.5379,-0.812,4.147,-3.71,-0.963
1772934800392.9763,0.0215,-0.537,-0.812,4.156,-3.5,-0.849
1772934800392.9763,0.0217,-0.5351,-0.8137,4.13,-3.491,-0.936
1772934800392.9763,0.0206,-0.5342,-0.8162,4.226,-3.649,-0.91
1772934800392.9763,0.022,-0.5343,-0.8174,4.48,-3.684,-0.954
1772934800392.9763,0.0219,-0.5336,-0.8159,4.191,-3.316,-0.77
1772934800392.9763,0.0181,-0.5329,-0.819,4.296,-3.071,-0.814
1772934800392.9763,0.018,-0.5317,-0.8185,4.611,-3.43,-0.735
1772934800392.9763,0.0179,-0.5298,-0.8211,4.436,-3.491,-0.674
1772934800408.185,0.0168,-0.5297,-0.8202,4.532,-3.281,-0.823
1772934800408.185,0.0171,-0.5314,-0.8215,4.69,-3.106,-0.919
1772934800408.185,0.0168,-0.5287,-0.8225,4.725,-3.15,-0.735
1772934800408.185,0.0164,-0.5285,-0.824,4.883,-3.526,-1.015
1772934800408.185,0.0182,-0.5284,-0.8247,5.128,-3.859,-1.242
1772934800408.185,0.0166,-0.5271,-0.8255,5.075,-3.771,-1.208
1772934800408.185,0.0142,-0.528,-0.8287,5.101,-3.789,-1.54
1772934800408.185,0.0174,-0.5289,-0.8289,5.014,-3.736,-1.627
1772934800408.185,0.0178,-0.5311,-0.8299,4.996,-3.78,-1.715
1772934800408.185,0.0174,-0.5287,-0.8315,5.171,-4.069,-1.846
1772934800408.185,0.0154,-0.5305,-0.8291,5.093,-4.209,-1.82
1772934800408.185,0.0142,-0.5312,-0.8305,4.979,-4.147,-1.925
1772934800408.185,0.0181,-0.5269,-0.8287,4.769,-4.349,-2.013
1772934800423.406,0.0161,-0.5284,-0.8287,4.419,-4.428,-2.179
1772934800423.406,0.0169,-0.5286,-0.8317,4.463,-4.261,-2.03
1772934800423.406,0.0168,-0.5318,-0.83,4.515,-4.296,-1.96
1772934800423.406,0.0178,-0.5318,-0.83,4.366,-4.585,-2.31
1772934800423.406,0.0159,-0.5304,-0.8299,4.357,-4.506,-2.362
1772934800423.406,0.017,-0.532,-0.8276,4.226,-4.489,-2.231
1772934800423.406,0.0162,-0.5335,-0.8308,4.069,-4.506,-2.249
1772934800423.406,0.0162,-0.5323,-0.8313,3.964,-4.821,-2.249
1772934800423.406,0.0163,-0.5316,-0.8293,4.349,-4.979,-2.196
1772934800423.406,0.0148,-0.5316,-0.8262,4.156,-4.751,-2.152
1772934800423.406,0.0135,-0.532,-0.8282,4.121,-4.734,-2.039
1772934800423.406,0.0127,-0.5342,-0.8275,4.086,-4.716,-2.188
1772934800439.2866,0.014,-0.5326,-0.8279,4.095,-4.716,-1.925
1772934800439.2866,0.0129,-0.5345,-0.8266,4.183,-4.795,-1.978
1772934800439.2866,0.011,-0.5341,-0.8258,4.218,-4.944,-2.083
1772934800439.2866,0.012,-0.5341,-0.8276,4.051,-5.005,-1.837
1772934800439.2866,0.014,-0.5372,-0.827,3.859,-4.821,-1.741
1772934800439.2866,0.0123,-0.536,-0.8276,4.121,-4.795,-1.601
1772934800439.2866,0.0099,-0.537,-0.8259,3.876,-4.646,-1.575
1772934800439.2866,0.012,-0.5349,-0.8278,3.789,-4.725,-1.654
1772934800439.2866,0.014,-0.5375,-0.8276,3.964,-4.585,-1.829
1772934800439.2866,0.012,-0.5376,-0.8291,3.876,-4.366,-1.558
1772934800439.2866,0.0133,-0.5372,-0.8258,3.981,-4.489,-1.785
1772934800439.2866,0.0104,-0.5382,-0.8284,4.314,-4.734,-1.663
1772934800439.2866,0.0123,-0.5389,-0.8301,4.34,-4.681,-1.619
1772934800454.5576,0.0117,-0.5383,-0.8261,4.296,-4.463,-1.269
1772934800454.5576,0.012,-0.5391,-0.8268,4.471,-4.463,-1.391
1772934800454.5576,0.0135,-0.5402,-0.8273,4.55,-4.62,-1.601
1772934800454.5576,0.0127,-0.5363,-0.8284,4.567,-4.445,-1.321
1772934800454.5576,0.0119,-0.54,-0.8279,4.611,-4.559,-1.032
1772934800454.5576,0.0138,-0.5407,-0.8231,4.218,-4.655,-1.085
1772934800454.5576,0.0137,-0.5374,-0.8242,4.384,-4.296,-0.936
1772934800454.5576,0.0139,-0.5363,-0.8262,4.655,-4.524,-0.823
1772934800454.5576,0.0152,-0.5369,-0.8256,4.69,-4.638,-0.84
1772934800454.5576,0.0179,-0.5385,-0.8237,4.541,-4.55,-0.849
1772934800454.5576,0.0159,-0.5382,-0.8265,4.506,-4.567,-0.752
1772934800454.5576,0.0181,-0.5367,-0.8235,4.506,-4.253,-0.744
1772934800470.3574,0.0187,-0.5375,-0.8238,4.576,-4.559,-0.647
1772934800470.3574,0.02,-0.538,-0.8285,4.62,-4.209,-0.945
1772934800470.3574,0.0193,-0.5389,-0.8258,4.603,-4.497,-0.901
1772934800470.3574,0.0187,-0.5366,-0.8234,4.594,-4.777,-0.866
1772934800470.3574,0.0213,-0.5378,-0.8237,4.655,-4.804,-0.744
1772934800470.3574,0.0197,-0.5381,-0.8226,4.559,-4.524,-0.814
1772934800470.3574,0.0194,-0.5364,-0.823,4.585,-4.62,-1.111
1772934800470.3574,0.0236,-0.5363,-0.8234,4.357,-4.559,-0.936
1772934800470.3574,0.0201,-0.5344,-0.8225,4.594,-4.55,-1.137
1772934800470.3574,0.0233,-0.536,-0.8218,4.611,-4.541,-0.884
1772934800470.3574,0.0223,-0.535,-0.8206,4.594,-4.48,-0.954
1772934800470.3574,0.0227,-0.5372,-0.8191,4.62,-4.139,-1.041
1772934800470.3574,0.0203,-0.5354,-0.8235,4.375,-4.043,-1.067
1772934800485.9355,0.0228,-0.536,-0.819,4.384,-4.183,-1.295
1772934800485.9355,0.0215,-0.535,-0.8198,4.454,-4.366,-1.383
1772934800485.9355,0.0222,-0.5344,-0.8215,4.489,-4.287,-1.426
1772934800485.9355,0.0222,-0.5372,-0.8226,4.497,-4.226,-1.706
1772934800485.9355,0.0199,-0.5353,-0.8209,4.541,-4.218,-1.645
1772934800485.9355,0.0206,-0.536,-0.8225,4.69,-4.209,-1.417
1772934800485.9355,0.0228,-0.5375,-0.8215,4.559,-4.235,-1.549
1772934800485.9355,0.0198,-0.5362,-0.8257,4.165,-4.401,-1.619
1772934800485.9355,0.0207,-0.5364,-0.8219,4.585,-4.331,-1.732
1772934800485.9355,0.0227,-0.5351,-0.8197,4.629,-4.27,-1.689
1772934800485.9355,0.0194,-0.5334,-0.8212,4.673,-4.375,-1.855
1772934800485.9355,0.0221,-0.5372,-0.8245,4.646,-4.41,-2.013
1772934800485.9355,0.0198,-0.5355,-0.8225,4.489,-4.279,-2.047
1772934800501.7227,0.0182,-0.5342,-0.8223,4.576,-4.13,-1.89
1772934800501.7227,0.0188,-0.5347,-0.8236,4.62,-4.008,-2.179
1772934800501.7227,0.0204,-0.5343,-0.8234,4.62,-4.025,-2.31
1772934800501.7227,0.0187,-0.5347,-0.824,4.401,-4.244,-2.371
1772934800501.7227,0.0178,-0.5341,-0.8218,4.183,-4.218,-2.441
1772934800501.7227,0.0188,-0.5331,-0.8245,4.314,-4.226,-2.118
1772934800501.7227,0.0182,-0.5353,-0.8244,4.436,-4.48,-2.17
1772934800501.7227,0.0204,-0.5346,-0.8225,4.506,-4.428,-2.109
1772934800501.7227,0.0173,-0.5377,-0.8222,4.532,-4.375,-2.126
1772934800501.7227,0.0152,-0.5359,-0.8259,4.497,-4.576,-2.284
1772934800501.7227,0.0163,-0.5369,-0.8245,4.445,-4.218,-2.24
1772934800501.7227,0.0159,-0.5396,-0.8255,4.594,-4.27,-2.039
1772934800501.7227,0.0156,-0.5374,-0.8255,4.375,-4.489,-2.135
1772934800517.7979,0.0165,-0.5388,-0.8215,4.279,-4.541,-1.96
1772934800517.7979,0.0165,-0.5388,-0.8215,4.314,-4.445,-1.916
1772934800517.7979,0.0126,-0.5391,-0.8224,4.305,-4.585,-1.934
1772934800517.7979,0.011,-0.5411,-0.8216,4.27,-4.532,-1.724
1772934800517.7979,0.0104,-0.5398,-0.8233,4.165,-4.375,-1.619
1772934800517.7979,0.0105,-0.5408,-0.8237,4.156,-4.541,-1.461
1772934800517.7979,0.0125,-0.5394,-0.822,4.322,-4.506,-1.54
1772934800517.7979,0.0114,-0.54,-0.8239,4.139,-4.349,-1.514
1772934800517.7979,0.0118,-0.538,-0.8223,4.112,-4.244,-1.365
1772934800517.7979,0.0127,-0.5373,-0.8215,4.322,-4.331,-1.103
1772934800517.7979,0.0138,-0.5373,-0.8239,4.095,-4.357,-1.225
1772934800517.7979,0.0123,-0.5384,-0.8212,4.253,-4.322,-1.242
1772934800533.5852,0.0122,-0.538,-0.8208,4.051,-4.489,-1.295
1772934800533.5852,0.0117,-0.5379,-0.8223,3.955,-4.419,-1.312
1772934800533.5852,0.0134,-0.5373,-0.8225,4.016,-4.436,-1.321
1772934800533.5852,0.0158,-0.5372,-0.8211,3.99,-4.524,-1.094
1772934800533.5852,0.0129,-0.5375,-0.8197,3.99,-4.567,-1.242
1772934800533.5852,0.0131,-0.5377,-0.8203,3.999,-4.322,-1.374
1772934800533.5852,0.0148,-0.5369,-0.8212,4.086,-4.191,-1.417
1772934800533.5852,0.0162,-0.537,-0.8194,4.06,-4.34,-1.347
1772934800533.5852,0.0151,-0.5364,-0.8187,4.043,-4.2,-1.059
1772934800533.5852,0.0168,-0.538,-0.8198,3.85,-4.235,-1.146
1772934800533.5852,0.0176,-0.5418,-0.8206,3.885,-4.112,-1.173
1772934800533.5852,0.0211,-0.5383,-0.8165,3.929,-4.314,-1.173
1772934800533.5852,0.0207,-0.5389,-0.8172,3.981,-4.244,-1.234
1772934800549.701,0.0196,-0.5402,-0.8173,3.938,-4.349,-1.111
1772934800549.701,0.0227,-0.5377,-0.8172,3.902,-4.156,-1.076
1772934800549.701,0.021,-0.5376,-0.8172,3.929,-4.104,-1.067
1772934800549.701,0.0235,-0.5405,-0.8172,3.946,-4.384,-1.173
1772934800549.701,0.0212,-0.5397,-0.8162,3.876,-4.559,-1.269
1772934800549.701,0.0209,-0.5385,-0.8156,3.885,-4.515,-1.251
1772934800549.701,0.0217,-0.5394,-0.8181,3.902,-4.524,-1.129
1772934800549.701,0.0233,-0.5406,-0.8178,3.902,-4.646,-1.234
1772934800549.701,0.02,-0.5394,-0.8183,3.964,-4.322,-1.05
1772934800549.701,0.0221,-0.5385,-0.8158,3.955,-4.541,-1.234
1772934800549.701,0.0209,-0.5389,-0.8165,3.824,-4.567,-1.347
1772934800549.701,0.0235,-0.5388,-0.813,3.684,-4.261,-1.199
1772934800549.701,0.0199,-0.5389,-0.8156,3.754,-4.506,-1.435
1772934800549.701,0.0226,-0.5392,-0.8158,3.868,-4.55,-1.33
1772934800564.8962,0.021,-0.5397,-0.8152,3.955,-4.401,-1.111
1772934800564.8962,0.0191,-0.5372,-0.8167,3.902,-4.331,-1.05
1772934800564.8962,0.0205,-0.5377,-0.8148,4.043,-4.27,-1.251
1772934800564.8962,0.0201,-0.5385,-0.817,3.797,-4.638,-1.356
1772934800564.8962,0.0198,-0.5379,-0.8193,3.684,-4.559,-1.321
1772934800564.8962,0.0199,-0.5391,-0.818,3.833,-4.699,-1.321
1772934800564.8962,0.0218,-0.5392,-0.8144,3.78,-4.681,-1.461
1772934800564.8962,0.0209,-0.5408,-0.8144,3.824,-4.769,-1.488
1772934800564.8962,0.0224,-0.5381,-0.8158,3.754,-4.497,-1.584
1772934800564.8962,0.0188,-0.5397,-0.8168,3.85,-4.401,-1.549
1772934800564.8962,0.0226,-0.5397,-0.814,3.894,-4.428,-1.531
1772934800564.8962,0.0204,-0.5377,-0.8154,3.78,-4.567,-1.479
1772934800580.8171,0.0207,-0.5384,-0.8158,3.902,-4.567,-1.68
1772934800580.8171,0.0196,-0.537,-0.8172,3.728,-4.611,-1.741
1772934800580.8171,0.0207,-0.5367,-0.8165,3.859,-4.515,-1.558
1772934800580.8171,0.0203,-0.5379,-0.8153,3.719,-4.506,-1.654
1772934800580.8171,0.0212,-0.5357,-0.8169,3.64,-4.55,-1.759
1772934800580.8171,0.0212,-0.5361,-0.8176,3.833,-4.585,-1.732
1772934800580.8171,0.0209,-0.5344,-0.8187,3.754,-4.489,-1.846
1772934800580.8171,0.0207,-0.537,-0.8157,3.675,-4.865,-1.925
1772934800580.8171,0.0178,-0.5375,-0.8196,3.955,-4.55,-2.126
1772934800580.8171,0.0193,-0.5363,-0.8168,4.226,-4.611,-2.231
1772934800580.8171,0.0199,-0.5384,-0.8148,4.104,-4.725,-2.152
1772934800580.8171,0.0181,-0.54,-0.8178,4.156,-4.734,-2.223
1772934800580.8171,0.0196,-0.5364,-0.8189,4.191,-4.638,-2.284
1772934800596.9062,0.0173,-0.5395,-0.8195,4.497,-4.734,-2.24
1772934800596.9062,0.0165,-0.5401,-0.8194,4.532,-4.795,-2.284
1772934800596.9062,0.0172,-0.5373,-0.8186,4.401,-4.296,-2.065
1772934800596.9062,0.0152,-0.5376,-0.8208,4.463,-4.673,-1.82
1772934800596.9062,0.0137,-0.539,-0.8229,4.393,-4.454,-1.916
1772934800596.9062,0.0154,-0.5385,-0.8227,4.314,-4.603,-2.013
1772934800596.9062,0.0155,-0.5369,-0.8203,4.541,-4.401,-2.091
1772934800596.9062,0.0151,-0.5355,-0.8194,4.366,-4.218,-1.899
1772934800596.9062,0.0148,-0.5381,-0.8209,4.436,-4.279,-1.969
1772934800596.9062,0.0136,-0.5389,-0.8233,4.524,-4.34,-2.056
1772934800596.9062,0.01,-0.5392,-0.8229,4.428,-4.2,-1.916
1772934800596.9062,0.0136,-0.5359,-0.8234,4.603,-4.428,-2.013
1772934800596.9062,0.0151,-0.5376,-0.8244,4.751,-4.445,-1.96
1772934800612.1274,0.0123,-0.5398,-0.8245,4.839,-4.428,-1.873
1772934800612.1274,0.0142,-0.5382,-0.8228,4.839,-4.419,-1.907
1772934800612.1274,0.0133,-0.5361,-0.8235,4.769,-4.253,-1.706
1772934800612.1274,0.0148,-0.5363,-0.822,4.725,-4.305,-1.627
1772934800612.1274,0.0166,-0.5375,-0.8255,4.812,-4.314,-1.802
1772934800612.1274,0.0151,-0.5355,-0.8267,4.821,-4.279,-1.68
1772934800612.1274,0.0165,-0.5386,-0.8249,4.707,-4.41,-1.802
1772934800612.1274,0.0181,-0.538,-0.8233,4.821,-4.515,-1.82
1772934800612.1274,0.0163,-0.5377,-0.8254,4.585,-4.445,-1.724
1772934800612.1274,0.0171,-0.5378,-0.8233,4.515,-4.48,-1.776
1772934800612.1274,0.0172,-0.5375,-0.8231,4.848,-4.419,-1.654
1772934800612.1274,0.017,-0.5372,-0.825,4.76,-4.585,-1.496
1772934800627.3247,0.0191,-0.539,-0.823,4.795,-4.629,-1.496
1772934800627.3247,0.0193,-0.5367,-0.8204,4.83,-4.594,-1.654
1772934800627.3247,0.0185,-0.5366,-0.8251,4.699,-4.576,-1.601
1772934800627.3247,0.0216,-0.5395,-0.8212,4.76,-4.497,-1.575
1772934800627.3247,0.0185,-0.5382,-0.8211,4.673,-4.524,-1.444
1772934800627.3247,0.02,-0.5408,-0.824,4.856,-4.874,-1.575
1772934800627.3247,0.0191,-0.543,-0.8226,4.463,-5.093,-1.417
1772934800627.3247,0.0193,-0.5408,-0.823,4.541,-4.891,-1.426
1772934800627.3247,0.0173,-0.5397,-0.8221,4.655,-4.83,-1.339
1772934800627.3247,0.0197,-0.5394,-0.8185,4.69,-5.022,-1.444
1772934800627.3247,0.0177,-0.54,-0.8236,4.638,-5.197,-1.452
1772934800627.3247,0.0201,-0.5389,-0.819,4.603,-5.005,-1.452
1772934800627.3247,0.022,-0.5401,-0.8175,4.541,-4.874,-1.417
1772934800643.108,0.0198,-0.5425,-0.8211,4.673,-4.489,-1.444
1772934800643.108,0.0206,-0.5417,-0.8199,4.603,-4.681,-1.304
1772934800643.108,0.0191,-0.5403,-0.822,4.463,-4.777,-1.479
1772934800643.108,0.0217,-0.5411,-0.8203,4.681,-4.874,-1.347
1772934800643.108,0.0215,-0.543,-0.8206,4.777,-5.031,-1.54
1772934800643.108,0.0213,-0.5433,-0.8215,4.786,-4.856,-1.356
1772934800643.108,0.0233,-0.5441,-0.8176,4.62,-4.874,-1.103
1772934800643.108,0.0221,-0.5424,-0.8194,4.445,-4.996,-1.347
1772934800643.108,0.0212,-0.5449,-0.8219,4.454,-4.795,-1.356
1772934800643.108,0.024,-0.5435,-0.8199,4.515,-5.031,-1.514
1772934800643.108,0.0234,-0.5444,-0.822,4.532,-5.407,-1.461
1772934800643.108,0.022,-0.5453,-0.8211,4.611,-5.338,-1.242
1772934800658.89,0.021,-0.5441,-0.823,4.638,-5.232,-1.155
1772934800658.89,0.0218,-0.5441,-0.8215,4.681,-5.25,-1.216
1772934800658.89,0.0199,-0.5411,-0.819,4.48,-5.338,-1.417
1772934800658.89,0.0215,-0.5429,-0.8187,4.419,-4.926,-1.059
1772934800658.89,0.0187,-0.5445,-0.8182,4.428,-4.812,-1.164
1772934800658.89,0.0205,-0.5435,-0.8193,4.086,-4.9,-1.006
1772934800658.89,0.0195,-0.5434,-0.8184,4.051,-5.18,-1.137
1772934800658.89,0.019,-0.5438,-0.8195,4.121,-5.075,-1.417
1772934800658.89,0.0197,-0.5448,-0.8195,4.244,-5.084,-1.269
1772934800658.89,0.0211,-0.543,-0.8174,4.183,-4.996,-1.321
1772934800658.89,0.0201,-0.5455,-0.8204,3.999,-4.926,-1.339
1772934800658.89,0.0217,-0.5442,-0.8178,4.209,-5.136,-1.452
1772934800658.89,0.0224,-0.543,-0.8171,4.156,-5.197,-1.452
1772934800674.4194,0.0199,-0.5424,-0.8194,4.06,-4.979,-1.531
1772934800674.4194,0.0209,-0.5446,-0.8161,4.069,-4.821,-1.426
1772934800674.4194,0.0221,-0.5403,-0.8157,4.191,-4.9,-1.444
1772934800674.4194,0.0207,-0.542,-0.8175,4.156,-4.812,-1.54
1772934800674.4194,0.0217,-0.5413,-0.8156,4.034,-4.734,-1.409
1772934800674.4194,0.0234,-0.5424,-0.8157,4.043,-4.944,-1.496
1772934800674.4194,0.0237,-0.5427,-0.8162,4.077,-4.865,-1.374
1772934800674.4194,0.0242,-0.5442,-0.8179,3.824,-4.41,-1.584
1772934800674.4194,0.0219,-0.5426,-0.8197,3.736,-4.795,-1.531
1772934800674.4194,0.0251,-0.5418,-0.8187,3.938,-4.567,-1.566
1772934800674.4194,0.0231,-0.5423,-0.8189,3.85,-4.357,-1.794
1772934800674.4194,0.0215,-0.5446,-0.8162,3.859,-4.349,-1.785
1772934800690.0464,0.0236,-0.542,-0.8176,3.938,-4.716,-1.566
1772934800690.0464,0.02,-0.5429,-0.8178,3.71,-4.812,-1.82
1772934800690.0464,0.0204,-0.5444,-0.8186,3.797,-4.804,-1.794
1772934800690.0464,0.0198,-0.5433,-0.8139,3.684,-4.638,-1.759
1772934800690.0464,0.0193,-0.5436,-0.8169,3.649,-4.506,-1.89
1772934800690.0464,0.0188,-0.5419,-0.8172,3.859,-4.585,-1.899
1772934800690.0464,0.0213,-0.5424,-0.819,3.754,-4.629,-1.995
1772934800690.0464,0.0192,-0.5416,-0.8194,3.719,-4.707,-1.969
1772934800690.0464,0.02,-0.5408,-0.8176,3.841,-4.786,-1.802
1772934800690.0464,0.0176,-0.5401,-0.8162,3.771,-4.541,-1.907
1772934800690.0464,0.0178,-0.5433,-0.8175,3.771,-4.436,-1.732
1772934800690.0464,0.0187,-0.54,-0.8214,3.605,-4.419,-1.645
1772934800690.0464,0.0179,-0.5418,-0.8183,3.692,-4.497,-1.934
1772934800705.2214,0.0168,-0.5372,-0.8191,3.509,-4.463,-1.951
1772934800705.2214,0.0149,-0.5395,-0.8192,3.675,-4.314,-2.021
1772934800705.2214,0.0156,-0.5386,-0.8198,3.806,-4.41,-1.873
1772934800705.2214,0.0145,-0.5367,-0.8206,3.666,-4.322,-1.741
1772934800705.2214,0.0178,-0.5381,-0.8181,3.736,-4.244,-1.837
1772934800705.2214,0.0155,-0.5361,-0.821,3.955,-4.261,-1.837
1772934800705.2214,0.0174,-0.5355,-0.8215,3.806,-4.716,-1.505
1772934800705.2214,0.0193,-0.5364,-0.82,3.955,-4.681,-1.584
1772934800705.2214,0.0185,-0.5388,-0.8179,3.85,-4.41,-1.488
1772934800705.2214,0.0173,-0.5378,-0.8186,3.99,-4.497,-1.452
1772934800705.2214,0.0179,-0.5361,-0.8186,3.806,-4.489,-1.339
1772934800705.2214,0.017,-0.5357,-0.8209,3.605,-4.541,-1.26
1772934800720.3755,0.0189,-0.5342,-0.8186,3.701,-4.585,-1.347
1772934800720.3755,0.0217,-0.5364,-0.8183,3.719,-4.489,-1.269
1772934800720.3755,0.019,-0.5366,-0.8184,3.64,-4.515,-1.33
1772934800720.3755,0.0206,-0.5356,-0.8187,3.544,-4.62,-1.365
1772934800720.3755,0.0193,-0.5361,-0.8186,3.649,-4.331,-1.269
1772934800720.3755,0.0194,-0.5363,-0.8198,3.71,-4.515,-1.278
1772934800720.3755,0.019,-0.5374,-0.8185,3.684,-4.629,-1.103
1772934800720.3755,0.0203,-0.5375,-0.8195,3.518,-4.638,-1.47
1772934800720.3755,0.0207,-0.5374,-0.8204,3.666,-4.795,-1.61
1772934800720.3755,0.0209,-0.5384,-0.8174,3.841,-4.742,-1.496
1772934800720.3755,0.0187,-0.5355,-0.8185,3.701,-4.865,-1.488
1772934800720.3755,0.0201,-0.538,-0.8203,3.964,-4.76,-1.68
1772934800720.3755,0.0212,-0.5354,-0.819,4.112,-4.874,-1.531
1772934800735.943,0.0218,-0.5397,-0.8185,4.095,-4.594,-1.4
1772934800735.943,0.0212,-0.5367,-0.8197,4.025,-4.804,-1.391
1772934800735.943,0.0243,-0.537,-0.8209,3.754,-5.075,-1.435
1772934800735.943,0.0228,-0.5399,-0.8197,3.806,-5.171,-1.601
1772934800735.943,0.0237,-0.5392,-0.8179,3.902,-4.987,-1.47
1772934800735.943,0.024,-0.5384,-0.8186,4.043,-4.856,-1.496
1772934800735.943,0.0232,-0.5377,-0.8174,3.92,-4.795,-1.663
1772934800735.943,0.0249,-0.5405,-0.8189,3.885,-4.769,-1.82
1772934800735.943,0.0232,-0.5359,-0.818,3.789,-4.83,-1.4
1772934800735.943,0.0215,-0.5395,-0.8187,3.71,-4.839,-1.593
1772934800735.943,0.0244,-0.5402,-0.8166,3.868,-4.742,-1.584
1772934800735.943,0.0236,-0.5411,-0.8175,3.938,-4.97,-1.724
1772934800751.8843,0.0257,-0.5392,-0.8194,3.929,-5.022,-1.636
1772934800751.8843,0.0253,-0.5422,-0.8202,3.789,-4.979,-1.654
1772934800751.8843,0.024,-0.5384,-0.8195,3.981,-5.022,-1.689
1772934800751.8843,0.0256,-0.5395,-0.8176,3.946,-5.058,-1.706
1772934800751.8843,0.0218,-0.5397,-0.8203,3.902,-4.9,-1.627
1772934800751.8843,0.0232,-0.5408,-0.8161,3.946,-5.136,-1.794
1772934800751.8843,0.0245,-0.5416,-0.8186,3.938,-5.075,-1.558
1772934800751.8843,0.0234,-0.5413,-0.8186,4.112,-5.022,-1.601
1772934800751.8843,0.0215,-0.5424,-0.822,3.929,-5.066,-1.54
1772934800751.8843,0.0218,-0.5396,-0.8182,3.824,-5.014,-1.575
1772934800751.8843,0.0214,-0.5423,-0.818,3.675,-4.76,-1.295
1772934800751.8843,0.0232,-0.5414,-0.8187,3.745,-4.786,-1.304
1772934800751.8843,0.0241,-0.5424,-0.8193,3.815,-4.742,-1.269
1772934800767.9438,0.0235,-0.5418,-0.8187,3.946,-4.795,-1.347
1772934800767.9438,0.0229,-0.5425,-0.8168,4.008,-4.891,-1.426
1772934800767.9438,0.0223,-0.5431,-0.8185,3.938,-4.804,-1.593
1772934800767.9438,0.0204,-0.5412,-0.8226,3.728,-4.751,-1.514
1772934800767.9438,0.0209,-0.5411,-0.8224,3.885,-5.049,-1.522
1772934800767.9438,0.0226,-0.5424,-0.8169,3.981,-5.101,-1.636
1772934800767.9438,0.0209,-0.5434,-0.8236,3.876,-5.154,-1.627
1772934800767.9438,0.0198,-0.5431,-0.823,3.859,-5.259,-1.488
1772934800767.9438,0.0194,-0.5445,-0.8206,3.902,-5.399,-1.671
1772934800767.9438,0.0191,-0.5447,-0.8209,3.553,-4.979,-1.452
1772934800767.9438,0.0201,-0.5454,-0.8229,3.684,-4.9,-1.549
1772934800767.9438,0.0195,-0.5452,-0.8187,3.763,-5.093,-1.365
1772934800767.9438,0.0183,-0.5448,-0.8214,3.745,-5.259,-1.461
1772934800783.707,0.0211,-0.5461,-0.8219,3.518,-4.935,-1.575
1772934800783.707,0.0196,-0.5455,-0.8201,3.631,-4.725,-1.312
1772934800783.707,0.0194,-0.5459,-0.8219,3.623,-5.093,-1.251
1772934800783.707,0.0197,-0.5469,-0.8198,3.763,-5.075,-1.417
1772934800783.707,0.0185,-0.5432,-0.8226,3.78,-4.935,-1.488
1772934800783.707,0.0193,-0.5446,-0.8179,3.658,-4.856,-1.488
1772934800783.707,0.0203,-0.5452,-0.8192,3.649,-4.83,-1.208
1772934800783.707,0.0196,-0.5457,-0.8214,3.561,-5.058,-1.391
1772934800783.707,0.0196,-0.5435,-0.8239,3.745,-5.39,-1.479
1772934800783.707,0.0184,-0.5467,-0.8206,3.579,-5.136,-1.505
1772934800783.707,0.0217,-0.5454,-0.8206,3.526,-5.04,-1.654
1772934800783.707,0.0198,-0.545,-0.8185,3.763,-5.197,-1.741
1772934800783.707,0.0201,-0.5456,-0.8197,3.649,-4.734,-1.715
1772934800799.3735,0.0187,-0.5461,-0.8187,3.789,-5.093,-1.732
1772934800799.3735,0.0189,-0.5471,-0.8228,3.833,-5.276,-1.601
1772934800799.3735,0.0202,-0.5448,-0.8178,3.544,-4.996,-1.593
1772934800799.3735,0.0227,-0.545,-0.8194,3.553,-5.04,-1.549
1772934800799.3735,0.0215,-0.5458,-0.8215,3.5,-5.066,-1.566
1772934800799.3735,0.0203,-0.5451,-0.8208,3.456,-5.189,-1.409
1772934800799.3735,0.0218,-0.5463,-0.819,3.666,-5.11,-1.356
1772934800799.3735,0.0226,-0.5459,-0.8184,3.579,-5.162,-1.514
1772934800799.3735,0.0216,-0.5459,-0.8198,3.605,-4.97,-1.409
1772934800799.3735,0.021,-0.5453,-0.8185,3.692,-5.338,-1.304
1772934800799.3735,0.0225,-0.5453,-0.8198,3.754,-5.32,-1.54
1772934800799.3735,0.0221,-0.5456,-0.8194,3.771,-5.04,-1.452
1772934800799.3735,0.0187,-0.5482,-0.8212,3.815,-5.162,-1.339
1772934800815.0042,0.0209,-0.5459,-0.8186,3.876,-5.084,-1.33
1772934800815.0042,0.0191,-0.5442,-0.8178,3.946,-5.294,-1.47
1772934800815.0042,0.0221,-0.5433,-0.8164,3.894,-5.574,-1.321
1772934800815.0042,0.0213,-0.5435,-0.8186,3.789,-4.97,-1.216
1772934800815.0042,0.0197,-0.5409,-0.8194,4.209,-5.276,-1.488
1772934800815.0042,0.0191,-0.5388,-0.8178,4.008,-5.399,-1.444
1772934800815.0042,0.0234,-0.5372,-0.8181,3.824,-5.434,-1.295
1772934800815.0042,0.0226,-0.5377,-0.8147,3.736,-5.32,-1.286
1772934800815.0042,0.0221,-0.5369,-0.8162,3.876,-5.101,-1.671
1772934800815.0042,0.0238,-0.5367,-0.8177,4.025,-5.128,-1.496
1772934800815.0042,0.0255,-0.5383,-0.8174,3.911,-5.197,-1.383
1772934800815.0042,0.0224,-0.5381,-0.8153,3.85,-5.154,-1.505
1772934800830.9788,0.0255,-0.5366,-0.8139,4.051,-4.952,-1.33
1772934800830.9788,0.0242,-0.5368,-0.8146,3.99,-4.987,-1.356
1772934800830.9788,0.0232,-0.5367,-0.8175,4.305,-5.197,-1.374
1772934800830.9788,0.0246,-0.5368,-0.8175,4.331,-5.11,-1.365
1772934800830.9788,0.0226,-0.5353,-0.8157,4.008,-4.935,-1.47
1772934800830.9788,0.0245,-0.5391,-0.8134,4.121,-4.996,-1.391
1772934800830.9788,0.0242,-0.5405,-0.8147,3.938,-5.119,-1.225
1772934800830.9788,0.0218,-0.5405,-0.8139,4.2,-5.11,-1.155
1772934800830.9788,0.0228,-0.541,-0.8125,4.147,-5.128,-1.129
1772934800830.9788,0.022,-0.5393,-0.8159,4.06,-5.171,-1.173
1772934800830.9788,0.0227,-0.5397,-0.8148,4.279,-4.987,-1.4
1772934800830.9788,0.0234,-0.5383,-0.8161,4.147,-5.084,-1.286
1772934800830.9788,0.0225,-0.5386,-0.817,4.139,-4.9,-1.251
1772934800847.1028,0.0231,-0.5402,-0.8179,4.244,-5.022,-1.137
1772934800847.1028,0.0254,-0.5405,-0.8134,4.191,-4.918,-1.383
1772934800847.1028,0.0247,-0.5413,-0.8195,3.955,-5.04,-1.304
1772934800847.1028,0.0208,-0.5401,-0.8183,4.077,-4.97,-1.339
1772934800847.1028,0.0237,-0.5429,-0.8167,4.226,-5.171,-1.286
1772934800847.1028,0.0235,-0.5414,-0.8161,4.331,-4.891,-1.094
1772934800847.1028,0.0199,-0.5422,-0.8177,4.226,-4.804,-1.278
1772934800847.1028,0.0231,-0.5441,-0.8187,4.191,-5.119,-1.452
1772934800847.1028,0.0227,-0.542,-0.8164,4.025,-5.206,-1.242
1772934800847.1028,0.0235,-0.5439,-0.8161,4.156,-5.303,-1.356
1772934800847.1028,0.0208,-0.5439,-0.817,4.209,-5.224,-1.383
1772934800847.1028,0.0206,-0.5433,-0.8167,4.218,-5.311,-1.461
1772934800847.1028,0.0227,-0.5456,-0.8169,4.296,-5.215,-1.514
1772934800862.8857,0.0218,-0.5461,-0.8155,4.174,-5.049,-1.409
1772934800862.8857,0.0231,-0.5449,-0.8186,4.314,-4.839,-1.549
1772934800862.8857,0.022,-0.5455,-0.8178,4.253,-5.014,-1.4
1772934800862.8857,0.0239,-0.5444,-0.8168,4.471,-5.145,-1.4
1772934800862.8857,0.0216,-0.5436,-0.8157,4.261,-5.049,-1.365
1772934800862.8857,0.0215,-0.5459,-0.8165,4.34,-5.154,-1.645
1772934800862.8857,0.0198,-0.5434,-0.8161,4.463,-5.294,-1.505
1772934800862.8857,0.0195,-0.5448,-0.8168,4.314,-5.171,-1.75
1772934800862.8857,0.0218,-0.5459,-0.8147,4.436,-5.232,-1.759
1772934800862.8857,0.0201,-0.5445,-0.8175,4.559,-5.224,-1.794
1772934800862.8857,0.021,-0.5425,-0.8197,4.366,-5.189,-1.601
1772934800862.8857,0.0214,-0.5445,-0.8186,4.497,-5.084,-1.549
1772934800862.8857,0.0195,-0.5442,-0.8181,4.559,-5.32,-1.496
1772934800878.5037,0.0213,-0.542,-0.8156,4.559,-5.311,-1.391
1772934800878.5037,0.0237,-0.5412,-0.8153,4.559,-5.162,-1.409
1772934800878.5037,0.0226,-0.5428,-0.8176,4.55,-5.355,-1.75
1772934800878.5037,0.023,-0.5415,-0.8163,4.585,-5.232,-1.89
1772934800878.5037,0.0242,-0.542,-0.8156,4.506,-5.145,-1.969
1772934800878.5037,0.0234,-0.5435,-0.8158,4.463,-4.935,-1.698
1772934800878.5037,0.0242,-0.5432,-0.8166,4.524,-5.128,-1.942
1772934800878.5037,0.0229,-0.5431,-0.8174,4.489,-4.891,-1.916
1772934800878.5037,0.0226,-0.5445,-0.8175,4.777,-5.241,-1.978
1772934800878.5037,0.0199,-0.5431,-0.8172,4.55,-5.005,-1.89
1772934800878.5037,0.0211,-0.5428,-0.8194,4.62,-4.812,-1.899
1772934800878.5037,0.0244,-0.5466,-0.8161,4.48,-4.909,-2.039
1772934800878.5037,0.0224,-0.5453,-0.8145,4.725,-5.066,-1.811
1772934800894.0376,0.0198,-0.5447,-0.8189,4.716,-5.241,-1.873
1772934800894.0376,0.0217,-0.5445,-0.819,4.699,-5.04,-1.768
1772934800894.0376,0.0215,-0.5453,-0.8176,4.55,-5.276,-1.811
1772934800894.0376,0.0219,-0.5444,-0.8156,4.471,-4.996,-1.916
1772934800894.0376,0.0203,-0.5457,-0.817,4.559,-5.049,-1.829
1772934800894.0376,0.022,-0.5443,-0.8165,4.638,-5.442,-1.575
1772934800894.0376,0.0206,-0.5476,-0.8155,4.515,-5.32,-1.715
1772934800894.0376,0.0205,-0.5454,-0.8142,4.524,-5.232,-1.698
1772934800894.0376,0.0211,-0.5457,-0.8185,4.839,-5.285,-1.75
1772934800894.0376,0.0215,-0.5447,-0.8164,4.812,-5.407,-2.013
1772934800894.0376,0.0228,-0.5447,-0.8175,4.865,-5.224,-1.645
1772934800894.0376,0.0234,-0.5453,-0.8164,5.022,-5.206,-1.68
1772934800910.072,0.021,-0.5461,-0.8175,4.909,-5.136,-1.461
1772934800910.072,0.0212,-0.5457,-0.8146,4.909,-5.093,-1.514
1772934800910.072,0.0214,-0.5464,-0.8177,4.725,-5.145,-1.505
1772934800910.072,0.0246,-0.5466,-0.815,4.76,-5.294,-1.663
1772934800910.072,0.0228,-0.5437,-0.8134,4.821,-5.434,-1.636
1772934800910.072,0.0218,-0.5459,-0.8126,4.952,-5.469,-1.715
1772934800910.072,0.022,-0.547,-0.8108,4.952,-5.04,-1.829
1772934800910.072,0.0227,-0.5442,-0.8117,4.918,-4.935,-1.794
1772934800910.072,0.0238,-0.5469,-0.8141,4.821,-5.058,-1.837
1772934800910.072,0.0231,-0.5495,-0.8131,4.961,-5.031,-1.811
1772934800910.072,0.0195,-0.5458,-0.8159,5.11,-4.777,-1.558
1772934800910.072,0.0214,-0.5446,-0.8146,4.83,-4.952,-1.61
1772934800910.072,0.0228,-0.545,-0.8162,4.664,-5.189,-1.619
1772934800925.3672,0.023,-0.5467,-0.8142,4.83,-4.856,-1.846
1772934800925.3672,0.0206,-0.5455,-0.8133,4.69,-4.541,-1.794
1772934800925.3672,0.0225,-0.545,-0.8138,4.856,-5.049,-1.741
1772934800925.3672,0.021,-0.5475,-0.8133,4.839,-5.232,-1.689
1772934800925.3672,0.0224,-0.5462,-0.8128,4.611,-5.276,-1.584
1772934800925.3672,0.0197,-0.5452,-0.8157,4.804,-4.918,-1.54
1772934800925.3672,0.0212,-0.5458,-0.815,4.707,-4.856,-1.706
1772934800925.3672,0.0248,-0.5446,-0.812,4.725,-5.11,-1.593
1772934800925.3672,0.0206,-0.5461,-0.814,4.891,-5.101,-1.417
1772934800925.3672,0.0231,-0.5456,-0.8148,4.777,-5.084,-1.374
1772934800925.3672,0.0226,-0.5438,-0.8145,4.751,-4.979,-1.339
1772934800925.3672,0.0235,-0.547,-0.8151,4.559,-4.865,-1.4
1772934800925.3672,0.0235,-0.5445,-0.8162,4.585,-4.918,-1.496
1772934800940.6975,0.0227,-0.5454,-0.813,4.428,-4.926,-1.496
1772934800940.6975,0.0206,-0.5443,-0.8155,4.506,-4.751,-1.47
1772934800940.6975,0.0231,-0.545,-0.8132,4.471,-4.742,-1.619
1772934800940.6975,0.0215,-0.5441,-0.8123,4.62,-4.786,-1.435
1772934800940.6975,0.0193,-0.5466,-0.8131,4.69,-5.014,-1.61
1772934800940.6975,0.0187,-0.5474,-0.8114,4.497,-4.865,-1.627
1772934800940.6975,0.022,-0.5488,-0.8142,4.594,-4.935,-1.575
1772934800940.6975,0.0204,-0.5478,-0.8126,4.76,-5.022,-1.54
1772934800940.6975,0.023,-0.5473,-0.8111,4.725,-4.804,-1.4
1772934800940.6975,0.0222,-0.5479,-0.814,4.673,-4.585,-1.522
1772934800940.6975,0.0223,-0.546,-0.8154,4.699,-4.681,-1.549
1772934800940.6975,0.0223,-0.5461,-0.814,4.795,-4.769,-1.347
1772934800955.7952,0.0237,-0.5467,-0.8162,4.804,-4.935,-1.593
1772934800955.7952,0.0227,-0.545,-0.8142,4.638,-4.883,-1.584
1772934800955.7952,0.0215,-0.5456,-0.8149,4.463,-4.673,-1.426
1772934800955.7952,0.022,-0.542,-0.8164,4.454,-4.62,-1.383
1772934800955.7952,0.0257,-0.5407,-0.8154,4.795,-4.769,-1.654
1772934800955.7952,0.0208,-0.5444,-0.8156,4.655,-4.541,-1.496
1772934800955.7952,0.0214,-0.5424,-0.8145,4.673,-4.463,-1.374
1772934800955.7952,0.0239,-0.5435,-0.818,4.559,-4.541,-1.601
1772934800955.7952,0.0264,-0.542,-0.8168,4.393,-4.804,-1.785
1772934800955.7952,0.0251,-0.5419,-0.8164,4.436,-4.69,-1.768
1772934800955.7952,0.0215,-0.5423,-0.8142,4.445,-4.463,-1.942
1772934800955.7952,0.0237,-0.5446,-0.817,4.226,-4.463,-1.899
1772934800971.892,0.0258,-0.5422,-0.8181,4.226,-4.83,-2.109
1772934800971.892,0.0245,-0.5438,-0.8156,4.025,-4.812,-1.768
1772934800971.892,0.0228,-0.5447,-0.8169,4.261,-4.944,-1.785
1772934800971.892,0.0225,-0.5449,-0.8176,4.191,-4.725,-1.829
1772934800971.892,0.0214,-0.5434,-0.8187,4.305,-4.918,-1.916
1772934800971.892,0.0225,-0.5445,-0.8166,4.191,-5.084,-1.82
1772934800971.892,0.0219,-0.5427,-0.8192,4.183,-4.944,-1.881
1772934800971.892,0.0221,-0.5432,-0.8169,4.112,-4.777,-2.047
1772934800971.892,0.0204,-0.545,-0.8189,4.139,-5.022,-2.083
1772934800971.892,0.0245,-0.5441,-0.8201,4.095,-5.171,-2.03
1772934800971.892,0.0226,-0.5438,-0.8183,4.008,-4.848,-1.89
1772934800971.892,0.023,-0.5433,-0.8209,3.85,-4.55,-2.03
1772934800971.892,0.0226,-0.5428,-0.8164,3.92,-4.812,-2.179
1772934800987.6287,0.0213,-0.5445,-0.8185,3.999,-4.839,-1.978
1772934800987.6287,0.0241,-0.5443,-0.8181,3.894,-5.04,-2.083
1772934800987.6287,0.0248,-0.5449,-0.8193,3.736,-4.812,-1.881
1772934800987.6287,0.0225,-0.5452,-0.8212,3.833,-5.014,-1.925
1772934800987.6287,0.0266,-0.5457,-0.8201,3.85,-5.058,-1.96
1772934800987.6287,0.0246,-0.5461,-0.8183,3.911,-5.171,-1.969
1772934800987.6287,0.0245,-0.5449,-0.8198,3.981,-5.014,-1.995
1772934800987.6287,0.0242,-0.5442,-0.819,3.841,-5.066,-1.794
1772934800987.6287,0.0248,-0.5447,-0.8188,4.043,-5.11,-1.978
1772934800987.6287,0.024,-0.5459,-0.8179,4.008,-5.311,-1.741
1772934800987.6287,0.0259,-0.5455,-0.8182,4.156,-5.101,-2.039
1772934800987.6287,0.026,-0.5458,-0.8191,3.973,-5.04,-1.645
1772934800987.6287,0.0243,-0.5459,-0.8195,3.868,-5.311,-1.724
1772934801003.6978,0.0231,-0.5454,-0.8165,3.902,-5.224,-1.645
1772934801003.6978,0.0225,-0.5441,-0.8197,4.008,-4.944,-1.269
1772934801003.6978,0.0246,-0.5453,-0.8172,3.964,-5.171,-1.251
1772934801003.6978,0.0263,-0.5451,-0.8173,3.911,-4.918,-1.339
1772934801003.6978,0.0245,-0.5464,-0.8157,3.719,-4.97,-1.4
1772934801003.6978,0.0246,-0.5463,-0.8184,3.938,-4.996,-1.312
1772934801003.6978,0.0226,-0.547,-0.8195,3.938,-5.049,-1.216
1772934801003.6978,0.023,-0.5464,-0.8212,3.964,-5.162,-1.208
1772934801003.6978,0.0257,-0.5488,-0.82,3.981,-5.355,-1.321
1772934801003.6978,0.0237,-0.5477,-0.816,4.06,-5.46,-1.269
1772934801003.6978,0.0254,-0.548,-0.8161,4.034,-5.442,-1.094
1772934801003.6978,0.0252,-0.5478,-0.8186,3.868,-5.197,-1.286
1772934801003.6978,0.0239,-0.5507,-0.8189,4.086,-5.478,-1.356
1772934801019.7388,0.0264,-0.5506,-0.8174,3.929,-5.644,-1.173
1772934801019.7388,0.0227,-0.55,-0.8158,3.859,-5.539,-1.111
1772934801019.7388,0.0228,-0.5516,-0.8164,4.2,-5.381,-1.164
1772934801019.7388,0.0246,-0.5479,-0.8201,4.305,-5.25,-0.963
1772934801019.7388,0.0248,-0.547,-0.8145,4.016,-5.338,-0.954
1772934801019.7388,0.0243,-0.545,-0.8169,3.797,-5.346,-1.085
1772934801019.7388,0.0244,-0.5462,-0.816,3.78,-5.32,-0.963
1772934801019.7388,0.0262,-0.5469,-0.8166,3.92,-5.093,-1.067
1772934801019.7388,0.0252,-0.5447,-0.8167,3.684,-5.241,-1.278
1772934801019.7388,0.0235,-0.5466,-0.8138,3.649,-5.189,-1.234
1772934801019.7388,0.0231,-0.5449,-0.817,3.833,-5.399,-1.173
1772934801019.7388,0.0249,-0.5488,-0.8163,3.78,-5.355,-1.312
1772934801019.7388,0.0229,-0.5485,-0.8139,3.824,-5.372,-1.488
1772934801036.1401,0.0232,-0.5501,-0.8128,3.92,-5.338,-1.365
1772934801036.1401,0.0229,-0.5509,-0.8125,3.579,-5.478,-1.094
1772934801036.1401,0.024,-0.5502,-0.8145,3.57,-5.46,-1.225
1772934801036.1401,0.0214,-0.5497,-0.8122,3.763,-5.232,-1.137
1772934801036.1401,0.0253,-0.548,-0.8151,3.833,-5.355,-1.059
1772934801036.1401,0.0221,-0.5481,-0.8133,3.868,-5.416,-0.971
1772934801036.1401,0.0244,-0.546,-0.8183,3.797,-5.346,-1.076
1772934801036.1401,0.0246,-0.546,-0.8144,3.797,-5.25,-0.884
1772934801036.1401,0.0249,-0.5442,-0.8145,3.763,-4.76,-0.936
1772934801036.1401,0.0247,-0.5449,-0.8128,3.553,-5.128,-1.216
1772934801036.1401,0.0242,-0.5443,-0.814,3.587,-5.381,-1.006
1772934801036.1401,0.0246,-0.5453,-0.8166,3.526,-5.259,-1.041
1772934801036.1401,0.0253,-0.5465,-0.8145,3.57,-5.145,-0.989
1772934801036.1401,0.0232,-0.5459,-0.8144,3.518,-5.311,-1.242
1772934801051.5884,0.0239,-0.5452,-0.8156,3.386,-5.801,-1.216
1772934801051.5884,0.0215,-0.5459,-0.8146,3.132,-5.407,-1.444
1772934801051.5884,0.0232,-0.5469,-0.8158,3.29,-5.381,-1.873
1772934801051.5884,0.0223,-0.5469,-0.8162,3.246,-5.539,-1.593
1772934801051.5884,0.0233,-0.5472,-0.8176,3.377,-5.652,-1.645
1772934801051.5884,0.0252,-0.5477,-0.8167,3.334,-5.652,-1.488
1772934801051.5884,0.022,-0.5481,-0.8162,3.08,-5.661,-1.698
1772934801051.5884,0.0228,-0.5479,-0.8129,3.29,-5.836,-1.584
1772934801051.5884,0.0222,-0.5469,-0.8145,3.001,-5.39,-1.566
1772934801051.5884,0.0218,-0.5459,-0.8139,3.08,-5.372,-1.601
1772934801051.5884,0.0237,-0.5455,-0.8137,3.062,-5.67,-1.627
1772934801051.5884,0.0228,-0.547,-0.8139,2.958,-5.495,-1.794
1772934801067.6016,0.0235,-0.5474,-0.8156,3.08,-5.6,-1.846
1772934801067.6016,0.0243,-0.5451,-0.8157,2.94,-5.399,-1.802
1772934801067.6016,0.0255,-0.5441,-0.8126,2.599,-5.574,-1.776
1772934801067.6016,0.0253,-0.5453,-0.8101,3.027,-5.451,-2.004
1772934801067.6016,0.0274,-0.5488,-0.8133,3.054,-5.766,-1.785
1772934801067.6016,0.0257,-0.5464,-0.8143,3.351,-5.74,-1.899
1772934801067.6016,0.0268,-0.5483,-0.8117,3.237,-5.652,-2.126
1772934801067.6016,0.025,-0.5452,-0.8133,3.001,-5.556,-1.942
1772934801067.6016,0.0283,-0.5453,-0.8128,3.413,-5.626,-2.047
1772934801067.6016,0.0257,-0.5481,-0.8163,3.544,-5.548,-1.671
1772934801067.6016,0.0268,-0.5486,-0.816,3.325,-5.399,-1.636
1772934801067.6016,0.0266,-0.5478,-0.8136,3.404,-5.626,-1.68
1772934801067.6016,0.0262,-0.5464,-0.814,3.518,-5.189,-1.522
1772934801082.8772,0.0242,-0.5485,-0.8173,3.377,-5.136,-1.461
1772934801082.8772,0.0243,-0.5474,-0.8151,3.334,-5.276,-1.645
1772934801082.8772,0.0224,-0.548,-0.8185,3.43,-5.066,-1.54
1772934801082.8772,0.0236,-0.5492,-0.8178,3.404,-4.961,-1.444
1772934801082.8772,0.0256,-0.5473,-0.8177,3.316,-5.014,-1.549
1772934801082.8772,0.0252,-0.5483,-0.8178,3.386,-5.162,-1.549
1772934801082.8772,0.0241,-0.5463,-0.8179,3.159,-4.944,-1.435
1772934801082.8772,0.0225,-0.5483,-0.8183,3.237,-4.795,-1.522
1772934801082.8772,0.024,-0.5465,-0.8206,3.054,-4.734,-1.584
1772934801082.8772,0.0237,-0.5493,-0.8208,3.281,-5.101,-1.479
1772934801082.8772,0.0249,-0.5477,-0.8188,3.106,-5.372,-1.636
1772934801082.8772,0.0248,-0.5477,-0.8197,2.8,-5.311,-1.627
1772934801082.8772,0.0219,-0.5481,-0.8219,2.949,-5.372,-1.846
1772934801098.4907,0.0217,-0.5502,-0.8192,2.905,-5.591,-1.785
1772934801098.4907,0.0256,-0.5492,-0.8189,2.66,-5.521,-1.82
1772934801098.4907,0.0229,-0.5499,-0.8162,2.678,-5.758,-1.75
1772934801098.4907,0.0223,-0.5488,-0.8157,2.739,-5.871,-1.89
1772934801098.4907,0.0182,-0.5526,-0.8152,2.643,-5.74,-2.1
1772934801098.4907,0.0217,-0.5537,-0.8137,2.301,-5.425,-2.004
1772934801098.4907,0.0217,-0.5528,-0.8134,2.555,-5.723,-1.811
1772934801098.4907,0.0184,-0.5549,-0.8109,2.678,-5.827,-1.873
1772934801098.4907,0.0203,-0.5549,-0.8134,2.572,-5.6,-2.091
1772934801098.4907,0.0209,-0.5514,-0.8131,2.45,-5.723,-2.047
1772934801098.4907,0.0206,-0.5534,-0.8139,2.564,-5.775,-1.829
1772934801098.4907,0.0203,-0.5538,-0.8128,2.546,-5.74,-1.934
1772934801113.8704,0.0216,-0.553,-0.8094,2.748,-5.67,-1.934
1772934801113.8704,0.0216,-0.5539,-0.8124,2.669,-5.793,-1.969
1772934801113.8704,0.0197,-0.5534,-0.8091,2.485,-5.758,-2.109
1772934801113.8704,0.021,-0.556,-0.8109,2.546,-6.116,-1.89
1772934801113.8704,0.0221,-0.5561,-0.8074,2.266,-6.16,-1.663
1772934801113.8704,0.0226,-0.5551,-0.806,2.284,-6.44,-1.715
1772934801113.8704,0.0224,-0.5562,-0.8094,2.284,-6.204,-1.82
1772934801113.8704,0.0244,-0.5556,-0.8057,2.074,-6.589,-1.68
1772934801113.8704,0.0226,-0.5552,-0.807,1.96,-6.344,-1.689
1772934801113.8704,0.0232,-0.5536,-0.8042,2.004,-6.405,-1.706
1772934801113.8704,0.0228,-0.5495,-0.8089,2.152,-6.519,-1.689
1772934801113.8704,0.023,-0.5485,-0.8072,2.249,-6.414,-1.4
1772934801113.8704,0.021,-0.548,-0.8099,2.494,-6.606,-1.181
1772934801129.5618,0.0204,-0.5442,-0.8075,2.625,-6.449,-1.304
1772934801129.5618,0.0196,-0.5411,-0.8073,2.835,-6.265,-1.111
1772934801129.5618,0.0201,-0.5434,-0.8046,3.141,-6.02,-1.286
1772934801129.5618,0.0198,-0.542,-0.8075,3.465,-5.924,-1.339
1772934801129.5618,0.021,-0.5413,-0.8065,3.64,-5.46,-1.024
1772934801129.5618,0.0207,-0.5431,-0.8081,3.579,-5.617,-1.321
1772934801129.5618,0.0208,-0.5409,-0.8102,3.754,-5.364,-1.19
1772934801129.5618,0.0231,-0.5408,-0.8103,3.885,-5.372,-1.155
1772934801129.5618,0.0223,-0.5429,-0.8131,3.894,-4.979,-1.05
1772934801129.5618,0.0228,-0.5438,-0.8139,3.876,-4.918,-1.015
1772934801129.5618,0.0229,-0.5409,-0.819,4.147,-4.646,-0.787
1772934801129.5618,0.024,-0.5406,-0.8191,4.121,-4.603,-0.752
1772934801145.1633,0.0262,-0.5392,-0.822,4.27,-4.41,-0.665
1772934801145.1633,0.0267,-0.5377,-0.8206,4.218,-4.305,-0.682
1772934801145.1633,0.0281,-0.5389,-0.8216,4.156,-4.226,-0.656
1772934801145.1633,0.0263,-0.537,-0.8223,4.095,-4.305,-0.709
1772934801145.1633,0.0249,-0.5366,-0.8215,4.305,-4.235,-0.858
1772934801145.1633,0.0288,-0.5378,-0.8199,4.13,-4.156,-0.752
1772934801145.1633,0.0281,-0.538,-0.8223,3.885,-4.226,-0.613
1772934801145.1633,0.0306,-0.5386,-0.824,3.929,-4.34,-0.682
1772934801145.1633,0.0287,-0.5381,-0.822,3.78,-4.349,-0.735
1772934801145.1633,0.0301,-0.5386,-0.8218,3.666,-4.147,-0.744
1772934801145.1633,0.03,-0.5358,-0.823,3.57,-3.955,-0.744
1772934801145.1633,0.0316,-0.5361,-0.8223,3.623,-4.261,-0.831
1772934801145.1633,0.0318,-0.5367,-0.8224,3.36,-4.541,-0.656
1772934801160.7627,0.0335,-0.5347,-0.82,3.22,-4.174,-0.682
1772934801160.7627,0.0351,-0.5355,-0.8215,3.071,-4.261,-0.752
1772934801160.7627,0.0347,-0.5353,-0.8244,2.712,-4.008,-0.586
1772934801160.7627,0.0328,-0.5361,-0.8195,2.879,-4.419,-0.936
1772934801160.7627,0.0343,-0.5361,-0.8219,2.905,-4.366,-0.919
1772934801160.7627,0.033,-0.5351,-0.819,3.22,-4.419,-1.076
1772934801160.7627,0.0348,-0.5387,-0.818,2.774,-4.436,-1.076
1772934801160.7627,0.0332,-0.5417,-0.819,2.59,-4.305,-1.234
1772934801160.7627,0.0348,-0.5411,-0.8151,2.572,-4.673,-1.173
1772934801160.7627,0.0337,-0.5423,-0.8144,2.485,-4.839,-1.339
1772934801160.7627,0.0306,-0.5425,-0.8156,2.38,-4.603,-1.242
1772934801160.7627,0.0301,-0.5467,-0.8137,2.389,-4.524,-1.216
1772934801160.7627,0.03,-0.5497,-0.8144,2.371,-4.646,-1.47
1772934801175.8418,0.0303,-0.5489,-0.8128,2.056,-4.349,-1.251
1772934801175.8418,0.0293,-0.5494,-0.8157,2.231,-4.454,-1.444
1772934801175.8418,0.0324,-0.5538,-0.8142,2.047,-4.62,-1.68
1772934801175.8418,0.0317,-0.5542,-0.8128,2.223,-4.436,-1.768
1772934801175.8418,0.0287,-0.5569,-0.81,2.03,-4.279,-1.531
1772934801175.8418,0.0267,-0.5572,-0.8124,2.126,-4.41,-1.724
1772934801175.8418,0.0285,-0.5567,-0.8089,1.776,-4.401,-1.873
1772934801175.8418,0.0251,-0.5571,-0.8098,1.732,-4.725,-1.741
1772934801175.8418,0.0239,-0.556,-0.8106,1.549,-4.48,-1.619
1772934801175.8418,0.0249,-0.5586,-0.808,1.645,-4.69,-1.916
1772934801175.8418,0.0241,-0.5568,-0.808,1.724,-4.856,-2.065
1772934801175.8418,0.0227,-0.5558,-0.809,1.855,-4.777,-2.056
1772934801192.3958,0.0221,-0.556,-0.8091,1.925,-4.935,-1.907
1772934801192.3958,0.0202,-0.5549,-0.81,2.109,-4.9,-1.776
1772934801192.3958,0.0217,-0.5546,-0.8112,2.144,-4.909,-2.013
1772934801192.3958,0.0174,-0.5558,-0.8101,2.59,-5.311,-1.802
1772934801192.3958,0.0178,-0.5548,-0.8111,2.704,-5.197,-1.811
1772934801192.3958,0.0162,-0.5539,-0.8159,2.756,-5.434,-1.837
1772934801192.3958,0.0165,-0.5527,-0.8164,2.966,-5.416,-1.89
1772934801192.3958,0.0166,-0.5503,-0.8147,3.22,-5.329,-1.907
1772934801192.3958,0.014,-0.5488,-0.8178,3.421,-5.6,-1.899
1772934801192.3958,0.0131,-0.5483,-0.8217,3.649,-5.862,-2.109
1772934801192.3958,0.0125,-0.545,-0.8234,3.841,-5.582,-2.091
1772934801192.3958,0.0142,-0.5459,-0.8284,4.016,-5.714,-2.083
1772934801192.3958,0.0152,-0.543,-0.8291,4.305,-5.897,-2.459
1772934801206.9644,0.0151,-0.5444,-0.8327,4.366,-6.44,-2.284
1772934801206.9644,0.0131,-0.5414,-0.8365,4.41,-6.536,-2.441
1772934801206.9644,0.0144,-0.5395,-0.8422,4.804,-6.781,-2.415
1772934801206.9644,0.0174,-0.5344,-0.8442,4.97,-6.921,-2.362
1772934801206.9644,0.0131,-0.5334,-0.8512,5.364,-7.656,-2.581
1772934801206.9644,0.0132,-0.5322,-0.8567,5.836,-7.963,-2.572
1772934801206.9644,0.0132,-0.5335,-0.8592,5.521,-7.928,-2.712
1772934801206.9644,0.0121,-0.532,-0.8625,5.521,-8.75,-2.791
1772934801206.9644,0.0142,-0.5352,-0.8646,5.53,-9.1,-2.888
1772934801206.9644,0.0145,-0.5364,-0.8663,5.495,-9.328,-3.115
1772934801206.9644,0.0162,-0.5398,-0.8696,5.6,-10.159,-3.22
1772934801206.9644,0.016,-0.5397,-0.8669,5.215,-10.579,-2.975
1772934801223.7883,0.0179,-0.5428,-0.8661,4.751,-10.85,-2.958
1772934801223.7883,0.0184,-0.5429,-0.8699,4.585,-11.235,-3.001
1772934801223.7883,0.0201,-0.5459,-0.8652,4.077,-11.716,-3.194
1772934801223.7883,0.0201,-0.5463,-0.8617,3.605,-11.751,-3.211
1772934801223.7883,0.0207,-0.5495,-0.8557,3.237,-12.197,-3.176
1772934801223.7883,0.0224,-0.5499,-0.8527,2.739,-12.443,-3.045
1772934801223.7883,0.0222,-0.5519,-0.8524,2.047,-12.863,-3.019
1772934801223.7883,0.0251,-0.5502,-0.8473,1.627,-12.828,-3.132
1772934801223.7883,0.0248,-0.553,-0.8417,1.181,-12.836,-2.879
1772934801223.7883,0.0267,-0.5494,-0.8389,1.015,-12.845,-2.538
1772934801223.7883,0.0252,-0.5499,-0.8333,0.98,-12.723,-2.336
1772934801223.7883,0.027,-0.5499,-0.8319,0.525,-12.46,-2.31
1772934801223.7883,0.0298,-0.5505,-0.8292,0.49,-12.408,-2.152
1772934801223.7883,0.0294,-0.5492,-0.8253,0.411,-12.495,-2.266
1772934801239.4065,0.0314,-0.5528,-0.8223,0.359,-12.145,-1.837
1772934801239.4065,0.0335,-0.5522,-0.8226,0.403,-11.979,-1.855
1772934801239.4065,0.0343,-0.5511,-0.8203,0.499,-11.471,-1.82
1772934801239.4065,0.0339,-0.5527,-0.817,0.542,-10.938,-1.505
1772934801239.4065,0.0332,-0.5535,-0.8196,0.621,-10.824,-1.461
1772934801239.4065,0.0334,-0.5535,-0.8184,0.578,-10.395,-1.234
1772934801239.4065,0.0328,-0.5559,-0.8211,0.429,-10.561,-1.295
1772934801239.4065,0.0345,-0.5534,-0.8201,0.831,-10.133,-1.435
1772934801239.4065,0.0335,-0.5545,-0.8204,1.041,-10.211,-1.242
1772934801239.4065,0.0325,-0.5543,-0.82,1.146,-9.887,-1.146
1772934801239.4065,0.0335,-0.5529,-0.8176,1.19,-9.389,-1.479
1772934801239.4065,0.0301,-0.5525,-0.8181,1.225,-9.52,-1.312
1772934801254.7756,0.0263,-0.5539,-0.8164,1.522,-9.59,-1.339
1772934801254.7756,0.0285,-0.5524,-0.815,1.584,-9.293,-1.488
1772934801254.7756,0.0264,-0.5532,-0.8153,1.4,-9.485,-1.636
1772934801254.7756,0.0258,-0.5532,-0.8135,1.488,-9.59,-1.785
1772934801254.7756,0.0234,-0.5519,-0.8114,1.54,-9.669,-1.698
1772934801254.7756,0.0216,-0.5526,-0.8091,1.89,-9.704,-2.091
1772934801254.7756,0.0211,-0.5566,-0.8066,2.179,-9.555,-2.083
1772934801254.7756,0.0217,-0.558,-0.8024,2.074,-9.31,-1.846
1772934801254.7756,0.0187,-0.5574,-0.8003,2.354,-9.275,-1.715
1772934801254.7756,0.017,-0.5597,-0.798,2.52,-9.188,-1.698
1772934801254.7756,0.0192,-0.5597,-0.7933,2.564,-9.179,-1.715
1772934801254.7756,0.0187,-0.5608,-0.7953,2.949,-8.838,-1.286
1772934801254.7756,0.0174,-0.5614,-0.7876,3.15,-8.759,-1.417
1772934801270.594,0.0201,-0.5638,-0.7853,3.027,-8.47,-1.496
1772934801270.594,0.0198,-0.5642,-0.7879,3.132,-8.251,-1.155
1772934801270.594,0.0228,-0.5638,-0.7823,3.456,-8.181,-0.927
1772934801270.594,0.0232,-0.5643,-0.7806,3.561,-7.857,-1.312
1772934801270.594,0.0256,-0.5618,-0.7771,3.64,-7.875,-1.164
1772934801270.594,0.026,-0.5603,-0.7777,3.684,-7.385,-0.892
1772934801270.594,0.0253,-0.5602,-0.7783,3.561,-7.105,-0.796
1772934801270.594,0.028,-0.5588,-0.7795,3.631,-6.939,-0.849
1772934801270.594,0.0274,-0.5572,-0.7745,3.623,-6.475,-0.735
1772934801270.594,0.028,-0.5543,-0.7787,3.377,-6.291,-0.7
1772934801270.594,0.0304,-0.5545,-0.7768,3.465,-5.959,-0.796
1772934801270.594,0.0303,-0.5511,-0.7754,3.885,-5.88,-0.814
1772934801270.594,0.0283,-0.5508,-0.7786,3.71,-5.591,-0.77
1772934801286.0996,0.0286,-0.5505,-0.7769,3.509,-5.495,-0.963
1772934801286.0996,0.0288,-0.5463,-0.7805,3.64,-5.495,-1.146
1772934801286.0996,0.0252,-0.5461,-0.7801,3.605,-5.399,-1.041
1772934801286.0996,0.0265,-0.5452,-0.7804,3.806,-5.154,-1.146
1772934801286.0996,0.0246,-0.5435,-0.7824,3.754,-5.18,-1.426
1772934801286.0996,0.022,-0.5436,-0.7839,3.658,-5.39,-1.461
1772934801286.0996,0.0216,-0.5417,-0.7852,3.85,-5.303,-1.505
1772934801286.0996,0.0196,-0.5413,-0.7898,3.797,-5.451,-1.522
1772934801286.0996,0.0174,-0.5425,-0.7908,3.754,-5.416,-1.47
1772934801286.0996,0.0143,-0.5393,-0.7903,3.692,-5.609,-1.689
1772934801286.0996,0.0128,-0.5381,-0.7918,3.579,-5.758,-1.54
1772934801286.0996,0.011,-0.5381,-0.7915,3.518,-5.915,-1.881
1772934801301.632,0.0103,-0.5377,-0.7948,3.535,-5.749,-1.82
1772934801301.632,0.0115,-0.536,-0.7998,3.561,-5.88,-1.934
1772934801301.632,0.0066,-0.5367,-0.798,3.526,-5.793,-1.907
1772934801301.632,0.0068,-0.5363,-0.7993,3.413,-5.801,-1.785
1772934801301.632,0.0073,-0.5373,-0.8018,3.342,-5.775,-1.802
1772934801301.632,0.0052,-0.5377,-0.7996,3.281,-6.204,-2.196
1772934801301.632,0.005,-0.5367,-0.7993,3.587,-6.239,-2.266
1772934801301.632,0.0035,-0.5342,-0.804,3.745,-6.195,-2.266
1772934801301.632,0.0025,-0.5367,-0.8029,3.806,-6.344,-2.485
1772934801301.632,0.0003,-0.5367,-0.8064,3.859,-6.545,-2.301
1772934801301.632,0.0039,-0.5377,-0.8083,3.894,-6.536,-2.257
1772934801301.632,0.0052,-0.5361,-0.8062,3.824,-6.431,-1.934
1772934801301.632,0.004,-0.5374,-0.8062,3.841,-6.388,-1.715
1772934801316.9424,0.0049,-0.5367,-0.8081,4.06,-6.711,-1.978
1772934801316.9424,0.0058,-0.5378,-0.81,4.008,-6.895,-1.864
1772934801316.9424,0.0046,-0.5367,-0.8113,4.218,-6.851,-1.741
1772934801316.9424,0.0064,-0.5378,-0.8086,3.999,-6.755,-1.768
1772934801316.9424,0.0074,-0.5356,-0.8113,3.92,-6.353,-1.776
1772934801316.9424,0.0099,-0.5377,-0.8145,4.016,-6.309,-1.689
1772934801316.9424,0.0098,-0.5364,-0.8137,3.999,-6.3,-1.741
1772934801316.9424,0.0104,-0.5374,-0.813,4.034,-6.3,-1.689
1772934801316.9424,0.0128,-0.5354,-0.8115,4.043,-6.23,-1.837
1772934801316.9424,0.0135,-0.5385,-0.8113,3.955,-6.134,-1.759
1772934801316.9424,0.014,-0.5383,-0.8131,4.034,-5.994,-1.566
1772934801316.9424,0.0154,-0.54,-0.8147,4.043,-5.924,-1.54
1772934801332.1682,0.0161,-0.5391,-0.8125,4.112,-6.195,-1.549
1772934801332.1682,0.0163,-0.5389,-0.8165,3.973,-6.055,-1.785
1772934801332.1682,0.0169,-0.5395,-0.814,4.069,-5.836,-1.715
1772934801332.1682,0.0161,-0.5425,-0.815,3.797,-5.968,-1.566
1772934801332.1682,0.0179,-0.5395,-0.8136,4.043,-5.836,-1.698
1772934801332.1682,0.019,-0.541,-0.8165,4.147,-5.959,-1.715
1772934801332.1682,0.0206,-0.5421,-0.8154,3.894,-5.924,-1.724
1772934801332.1682,0.0203,-0.5425,-0.8141,3.876,-5.933,-1.671
1772934801332.1682,0.0216,-0.544,-0.8114,3.859,-5.582,-1.584
1772934801332.1682,0.0189,-0.5433,-0.8125,3.929,-5.32,-1.645
1772934801332.1682,0.0221,-0.5458,-0.8144,3.623,-5.399,-1.855
1772934801332.1682,0.0219,-0.5466,-0.8162,3.605,-4.961,-1.601
1772934801332.1682,0.0183,-0.5466,-0.8123,3.806,-5.128,-1.846
1772934801348.1519,0.0218,-0.5453,-0.8116,3.631,-5.136,-1.654
1772934801348.1519,0.0205,-0.5462,-0.8118,3.561,-5.058,-1.522
1772934801348.1519,0.0228,-0.5458,-0.8139,3.456,-4.856,-1.671
1772934801348.1519,0.0227,-0.5474,-0.8127,3.482,-4.839,-1.619
1772934801348.1519,0.0235,-0.5475,-0.8148,3.553,-5.084,-1.488
1772934801348.1519,0.0258,-0.5485,-0.8139,3.509,-4.935,-1.514
1772934801348.1519,0.0236,-0.5491,-0.8084,3.334,-4.786,-1.654
1772934801348.1519,0.0226,-0.55,-0.8115,3.159,-4.804,-1.575
1772934801348.1519,0.0264,-0.5518,-0.8118,3.237,-4.646,-1.68
1772934801348.1519,0.0245,-0.5528,-0.8131,3.377,-4.795,-1.636
1772934801348.1519,0.0264,-0.5508,-0.8129,3.229,-4.471,-1.654
1772934801348.1519,0.0257,-0.5506,-0.8103,3.316,-4.349,-1.89
1772934801364.227,0.0248,-0.5477,-0.8122,3.098,-4.559,-1.864
1772934801364.227,0.0264,-0.5512,-0.814,2.949,-4.655,-1.689
1772934801364.227,0.0276,-0.5508,-0.8137,3.019,-4.48,-1.601
1772934801364.227,0.0277,-0.5511,-0.8146,3.115,-4.401,-1.768
1772934801364.227,0.0248,-0.5516,-0.815,3.281,-4.673,-1.75
1772934801364.227,0.0258,-0.5516,-0.8128,3.15,-4.559,-1.593
1772934801364.227,0.0264,-0.5507,-0.8161,2.975,-4.541,-1.627
1772934801364.227,0.0278,-0.5527,-0.8107,2.958,-4.576,-1.846
1772934801364.227,0.0249,-0.5528,-0.8126,3.089,-4.611,-1.794
1772934801364.227,0.0255,-0.5548,-0.8144,3.237,-4.497,-1.811
1772934801364.227,0.0255,-0.5531,-0.812,3.071,-4.515,-1.89
1772934801364.227,0.0262,-0.5544,-0.8111,3.203,-4.541,-1.811
1772934801364.227,0.0249,-0.5557,-0.8125,3.203,-4.848,-2.065
1772934801364.227,0.0233,-0.5533,-0.8133,3.264,-4.944,-1.934
1772934801380.2976,0.0253,-0.5537,-0.8145,2.914,-4.681,-1.811
1772934801380.2976,0.0265,-0.5527,-0.8104,2.975,-4.83,-1.916
1772934801380.2976,0.0231,-0.5527,-0.8134,2.914,-4.996,-2.021
1772934801380.2976,0.0225,-0.5527,-0.813,3.036,-4.707,-1.881
1772934801380.2976,0.0224,-0.5503,-0.8145,2.975,-4.629,-1.916
1772934801380.2976,0.0228,-0.5533,-0.8161,3.176,-4.812,-1.698
1772934801380.2976,0.0209,-0.5531,-0.8119,3.098,-4.777,-1.732
1772934801380.2976,0.0213,-0.553,-0.8112,3.045,-4.751,-1.741
1772934801380.2976,0.0201,-0.5545,-0.813,3.167,-4.541,-1.829
1772934801380.2976,0.0206,-0.5552,-0.8101,2.984,-4.734,-1.899
1772934801380.2976,0.02,-0.5552,-0.8125,3.272,-4.848,-1.794
1772934801380.2976,0.0192,-0.5538,-0.8126,3.159,-4.952,-1.636
1772934801380.2976,0.0165,-0.5547,-0.8123,3.29,-5.049,-1.627
1772934801395.8083,0.0176,-0.5528,-0.8113,3.421,-4.9,-1.636
1772934801395.8083,0.0168,-0.5539,-0.8144,3.342,-4.83,-1.558
1772934801395.8083,0.0184,-0.5558,-0.8129,3.386,-4.812,-1.724
1772934801395.8083,0.0163,-0.5525,-0.8154,3.29,-4.926,-1.715
1772934801395.8083,0.017,-0.55,-0.814,3.001,-4.97,-1.566
1772934801395.8083,0.0142,-0.5503,-0.8153,3.124,-4.76,-1.47
1772934801395.8083,0.0165,-0.5514,-0.8121,3.062,-4.987,-1.689
1772934801395.8083,0.0143,-0.5461,-0.8135,2.94,-4.918,-1.881
1772934801395.8083,0.0155,-0.5481,-0.816,2.922,-4.839,-1.706
1772934801395.8083,0.0121,-0.5477,-0.8175,2.826,-4.638,-1.619
1772934801395.8083,0.0104,-0.5447,-0.8161,3.141,-4.935,-1.601
1772934801395.8083,0.0131,-0.5452,-0.8162,3.019,-4.874,-1.531
1772934801411.8264,0.0121,-0.5484,-0.815,2.914,-4.979,-1.759
1772934801411.8264,0.0117,-0.5468,-0.8181,2.905,-5.18,-1.776
1772934801411.8264,0.0128,-0.5456,-0.8166,2.931,-4.996,-1.732
1772934801411.8264,0.0105,-0.5477,-0.8199,2.721,-4.935,-1.75
1772934801411.8264,0.012,-0.5493,-0.8191,2.739,-4.935,-1.759
1772934801411.8264,0.01,-0.5462,-0.8181,2.896,-5.031,-1.75
1772934801411.8264,0.0093,-0.5465,-0.8172,2.774,-5.093,-1.864
1772934801411.8264,0.0096,-0.5445,-0.8207,2.704,-5.136,-1.741
1772934801411.8264,0.0079,-0.5459,-0.8242,2.844,-5.075,-1.627
1772934801411.8264,0.0093,-0.5453,-0.82,2.817,-5.014,-1.829
1772934801411.8264,0.0118,-0.5458,-0.8182,2.572,-5.093,-1.706
1772934801411.8264,0.013,-0.5456,-0.8194,2.205,-5.101,-1.47
1772934801411.8264,0.0112,-0.5461,-0.8173,2.126,-5.128,-1.54
1772934801427.3684,0.0125,-0.5479,-0.816,2.144,-4.734,-1.663
1772934801427.3684,0.012,-0.5464,-0.8204,2.135,-4.909,-1.593
1772934801427.3684,0.0115,-0.5442,-0.8217,2.109,-4.909,-1.488
1772934801427.3684,0.0134,-0.5463,-0.8178,1.802,-4.777,-1.531
1772934801427.3684,0.0133,-0.5453,-0.8162,2.039,-4.603,-1.566
1772934801427.3684,0.0148,-0.5477,-0.8169,2.109,-4.707,-1.479
1772934801427.3684,0.0138,-0.5462,-0.8173,1.978,-5.11,-1.435
1772934801427.3684,0.0138,-0.5468,-0.8144,2.013,-5.084,-1.479
1772934801427.3684,0.0167,-0.548,-0.8165,1.89,-4.961,-1.33
1772934801427.3684,0.016,-0.5492,-0.8153,1.794,-4.786,-1.383
1772934801427.3684,0.0193,-0.5471,-0.8172,1.654,-4.839,-1.173
1772934801427.3684,0.0204,-0.5494,-0.8146,1.802,-5.049,-1.295
1772934801427.3684,0.0182,-0.5475,-0.8172,1.715,-4.725,-1.067
1772934801443.4006,0.0196,-0.5498,-0.8147,1.811,-4.419,-0.884
1772934801443.4006,0.0221,-0.5494,-0.814,1.925,-4.891,-1.05
1772934801443.4006,0.0224,-0.5491,-0.8134,1.934,-4.646,-0.901
1772934801443.4006,0.0218,-0.5483,-0.8147,1.916,-4.777,-0.989
1772934801443.4006,0.0226,-0.5476,-0.8118,1.811,-4.821,-1.05
1772934801443.4006,0.0226,-0.5475,-0.8117,1.706,-4.777,-1.103
1772934801443.4006,0.0252,-0.5481,-0.8114,1.785,-4.935,-0.963
1772934801443.4006,0.0256,-0.5503,-0.8096,1.802,-4.611,-1.199
1772934801443.4006,0.0265,-0.5525,-0.8086,1.907,-4.734,-1.059
1772934801443.4006,0.0256,-0.5525,-0.8073,2.021,-4.961,-1.146
1772934801443.4006,0.0267,-0.5525,-0.8047,1.759,-4.742,-0.998
1772934801443.4006,0.027,-0.552,-0.8054,1.514,-4.603,-1.041
1772934801443.4006,0.0287,-0.554,-0.8082,1.496,-4.699,-1.374
1772934801458.3066,0.0274,-0.5502,-0.8065,1.417,-4.576,-1.085
1772934801458.3066,0.0293,-0.552,-0.8049,1.881,-4.489,-1.19
1772934801458.3066,0.0316,-0.5528,-0.8005,1.759,-4.576,-1.365
1772934801458.3066,0.0291,-0.5519,-0.8019,1.75,-4.27,-1.479
1772934801458.3066,0.0305,-0.553,-0.8022,1.864,-4.314,-1.032
1772934801458.3066,0.0305,-0.5526,-0.8012,2.074,-4.305,-1.251
1772934801458.3066,0.0316,-0.551,-0.8014,1.811,-4.008,-1.295
1772934801458.3066,0.0289,-0.5517,-0.8017,1.89,-4.174,-1.286
1772934801458.3066,0.032,-0.5519,-0.8021,2.135,-4.095,-1.312
1772934801458.3066,0.0306,-0.5516,-0.8008,2.284,-3.868,-1.059
1772934801458.3066,0.0303,-0.5514,-0.8005,2.328,-3.544,-1.225
1772934801458.3066,0.0304,-0.5517,-0.7995,2.336,-3.876,-0.927
1772934801474.2236,0.03,-0.5514,-0.8026,2.345,-3.929,-1.076
1772934801474.2236,0.0284,-0.551,-0.8009,2.511,-3.728,-1.05
1772934801474.2236,0.0287,-0.5502,-0.8,2.529,-3.587,-1.015
1772934801474.2236,0.0282,-0.5488,-0.8012,2.502,-3.334,-0.866
1772934801474.2236,0.0271,-0.5497,-0.8016,2.721,-3.272,-1.032
1772934801474.2236,0.0283,-0.5513,-0.8011,2.966,-3.447,-1.12
1772934801474.2236,0.0264,-0.5487,-0.8033,2.975,-3.281,-1.12
1772934801474.2236,0.027,-0.5476,-0.8028,2.975,-2.958,-0.901
1772934801474.2236,0.0269,-0.5444,-0.8109,3.141,-2.966,-0.954
1772934801474.2236,0.0265,-0.5437,-0.81,3.176,-2.888,-0.805
1772934801474.2236,0.0237,-0.5424,-0.8103,3.369,-2.914,-0.805
1772934801474.2236,0.0255,-0.5431,-0.8139,3.36,-3.08,-0.796
1772934801474.2236,0.0234,-0.5433,-0.8162,3.518,-3.054,-1.032
1772934801490.2568,0.0237,-0.5418,-0.8184,3.535,-3.141,-1.067
1772934801490.2568,0.0214,-0.543,-0.8198,3.482,-3.316,-1.155
1772934801490.2568,0.0216,-0.5392,-0.8194,3.736,-3.377,-1.173
1772934801490.2568,0.0179,-0.5419,-0.8215,3.719,-3.465,-1.295
1772934801490.2568,0.0182,-0.54,-0.824,3.736,-3.728,-1.356
1772934801490.2568,0.0168,-0.5403,-0.8279,3.815,-3.938,-1.452
1772934801490.2568,0.018,-0.5402,-0.8278,3.596,-3.841,-1.383
1772934801490.2568,0.018,-0.5413,-0.8291,3.701,-3.981,-1.479
1772934801490.2568,0.017,-0.5389,-0.8315,3.587,-4.322,-1.531
1772934801490.2568,0.0165,-0.5392,-0.8333,3.447,-4.463,-1.855
1772934801490.2568,0.0148,-0.5403,-0.8283,3.299,-4.567,-1.488
1772934801490.2568,0.0165,-0.5422,-0.8319,3.281,-4.935,-1.452
1772934801490.2568,0.0147,-0.5403,-0.8303,3.132,-5.232,-1.689
1772934801505.8271,0.0139,-0.5397,-0.8298,2.914,-5.346,-1.794
1772934801505.8271,0.0148,-0.5388,-0.8301,2.87,-5.136,-1.654
1772934801505.8271,0.0149,-0.5408,-0.8315,2.634,-5.268,-1.68
1772934801505.8271,0.0152,-0.5422,-0.8303,2.52,-5.644,-1.68
1772934801505.8271,0.0169,-0.5408,-0.8318,2.371,-5.556,-1.68
1772934801505.8271,0.0174,-0.5403,-0.8291,2.354,-5.88,-1.942
1772934801505.8271,0.0159,-0.5418,-0.8293,2.284,-6.116,-1.776
1772934801505.8271,0.0184,-0.5423,-0.8292,2.065,-5.924,-1.619
1772934801505.8271,0.0188,-0.5436,-0.8297,1.811,-5.985,-1.488
1772934801505.8271,0.0179,-0.5417,-0.8275,2.056,-6.143,-1.627
1772934801505.8271,0.0178,-0.5403,-0.8257,1.96,-5.758,-1.68
1772934801505.8271,0.0192,-0.5414,-0.8236,1.978,-6.072,-1.619
1772934801521.2842,0.0174,-0.5415,-0.8235,1.881,-6.081,-1.505
1772934801521.2842,0.0195,-0.5431,-0.8234,1.942,-5.95,-1.759
1772934801521.2842,0.0182,-0.5457,-0.8175,2.056,-5.871,-1.619
1772934801521.2842,0.0203,-0.5447,-0.82,2.074,-5.81,-1.47
1772934801521.2842,0.0185,-0.5455,-0.8209,1.951,-5.652,-1.479
1772934801521.2842,0.0209,-0.543,-0.8204,2.135,-5.705,-1.68
1772934801521.2842,0.0217,-0.545,-0.8191,2.013,-5.53,-1.549
1772934801521.2842,0.0218,-0.5466,-0.8199,1.899,-5.635,-1.444
1772934801521.2842,0.0231,-0.5457,-0.8203,1.873,-5.574,-1.356
1772934801521.2842,0.0242,-0.5429,-0.8179,2.31,-5.591,-1.164
1772934801521.2842,0.0228,-0.5453,-0.8136,2.502,-5.495,-1.103
1772934801521.2842,0.0221,-0.5453,-0.8154,2.389,-5.53,-1.417
1772934801521.2842,0.0213,-0.5442,-0.8145,2.555,-5.486,-1.234
1772934801537.3518,0.0225,-0.5462,-0.8134,2.607,-5.25,-1.225
1772934801537.3518,0.0231,-0.5449,-0.8145,2.748,-5.32,-1.295
1772934801537.3518,0.026,-0.5453,-0.8126,2.669,-5.416,-1.383
1772934801537.3518,0.0251,-0.5467,-0.8152,2.809,-5.311,-1.076
1772934801537.3518,0.0274,-0.5456,-0.812,3.176,-5.346,-1.094
1772934801537.3518,0.0271,-0.5455,-0.8106,3.141,-4.76,-1.111
1772934801537.3518,0.027,-0.546,-0.8123,3.045,-4.821,-0.998
1772934801537.3518,0.0266,-0.5474,-0.8149,3.054,-4.769,-0.989
1772934801537.3518,0.0264,-0.5477,-0.8126,3.264,-5.232,-0.875
1772934801537.3518,0.0256,-0.5466,-0.8102,3.281,-4.97,-0.919
1772934801537.3518,0.0248,-0.5476,-0.8107,3.456,-4.935,-0.945
1772934801537.3518,0.0257,-0.547,-0.8142,3.518,-4.856,-0.919
1772934801537.3518,0.0253,-0.5483,-0.8123,3.658,-5.022,-0.936
1772934801553.7776,0.0257,-0.5487,-0.8108,3.692,-4.865,-1.173
1772934801553.7776,0.0265,-0.5495,-0.8124,3.946,-4.97,-1.417
1772934801553.7776,0.0265,-0.5495,-0.8117,3.841,-5.136,-1.094
1772934801553.7776,0.0256,-0.5502,-0.8117,3.868,-5.18,-1.015
1772934801553.7776,0.0279,-0.5495,-0.8126,3.78,-4.883,-1.155
1772934801553.7776,0.0268,-0.5478,-0.8127,3.579,-5.058,-1.26
1772934801553.7776,0.0243,-0.5462,-0.8135,3.614,-5.11,-1.181
1772934801553.7776,0.0252,-0.5477,-0.8131,3.623,-4.987,-1.321
1772934801553.7776,0.0257,-0.5455,-0.8125,4.034,-5.075,-1.216
1772934801553.7776,0.0243,-0.5442,-0.8134,3.876,-4.48,-1.593
1772934801553.7776,0.025,-0.5452,-0.8125,3.701,-4.769,-1.531
1772934801553.7776,0.0264,-0.547,-0.81,3.833,-4.812,-1.522
1772934801553.7776,0.0253,-0.5474,-0.8137,3.684,-4.891,-1.855
1772934801569.858,0.0233,-0.5466,-0.8108,3.71,-4.795,-1.916
1772934801569.858,0.0228,-0.5465,-0.8107,3.789,-4.848,-1.96
1772934801569.858,0.0245,-0.5464,-0.8127,3.754,-4.821,-2.223
1772934801569.858,0.0247,-0.5467,-0.8126,3.806,-4.952,-1.96
1772934801569.858,0.0237,-0.5462,-0.8109,3.815,-4.804,-1.855
1772934801569.858,0.0242,-0.5472,-0.8118,3.797,-4.856,-2.205
1772934801569.858,0.0244,-0.5467,-0.8111,3.728,-4.891,-2.223
1772934801569.858,0.0246,-0.5485,-0.8112,3.64,-4.707,-1.995
1772934801569.858,0.0243,-0.5455,-0.8137,3.675,-4.629,-1.916
1772934801569.858,0.0256,-0.548,-0.8121,3.806,-4.865,-2.065
1772934801569.858,0.0243,-0.5455,-0.8113,3.553,-4.961,-2.135
1772934801569.858,0.0246,-0.5467,-0.8136,3.623,-4.848,-2.196
1772934801569.858,0.0256,-0.5477,-0.8123,3.728,-4.839,-2.013
1772934801585.3164,0.0222,-0.5466,-0.8118,3.596,-4.532,-2.135
1772934801585.3164,0.0216,-0.5463,-0.8097,3.561,-4.349,-2.161
1772934801585.3164,0.0226,-0.5505,-0.8129,3.561,-4.611,-2.152
1772934801585.3164,0.0201,-0.5477,-0.8148,3.64,-4.821,-2.03
1772934801585.3164,0.0213,-0.5499,-0.8145,3.614,-4.804,-2.284
1772934801585.3164,0.0197,-0.5512,-0.8179,3.649,-4.769,-2.1
1772934801585.3164,0.0186,-0.5489,-0.8161,3.623,-4.874,-2.223
1772934801585.3164,0.0192,-0.5485,-0.8173,3.474,-4.725,-2.021
1772934801585.3164,0.0181,-0.5483,-0.8172,3.176,-4.76,-2.091
1772934801585.3164,0.0183,-0.5493,-0.8195,3.237,-4.795,-2.1
1772934801585.3164,0.0167,-0.549,-0.817,3.272,-5.066,-1.864
1772934801585.3164,0.0173,-0.5506,-0.8154,3.08,-4.883,-1.89
1772934801585.3164,0.0193,-0.5514,-0.8147,3.185,-4.489,-2.109
1772934801600.4297,0.0169,-0.551,-0.8174,3.141,-4.48,-1.978
1772934801600.4297,0.0175,-0.551,-0.8204,2.958,-4.357,-2.135
1772934801600.4297,0.0184,-0.5507,-0.8159,2.905,-4.55,-1.899
1772934801600.4297,0.0171,-0.5511,-0.8183,3.019,-4.296,-1.759
1772934801600.4297,0.0177,-0.553,-0.8189,2.914,-4.567,-1.724
1772934801600.4297,0.0182,-0.5507,-0.8163,2.975,-4.567,-1.741
1772934801600.4297,0.0164,-0.5516,-0.8172,2.966,-4.489,-1.768
1772934801600.4297,0.0188,-0.5508,-0.8187,3.071,-4.454,-1.514
1772934801600.4297,0.0192,-0.5505,-0.8178,3.08,-4.664,-1.663
1772934801600.4297,0.0172,-0.5515,-0.8178,2.905,-4.716,-1.435
1772934801600.4297,0.0176,-0.5511,-0.8173,3.054,-4.611,-1.558
1772934801600.4297,0.0208,-0.5506,-0.8182,2.87,-4.585,-1.68
1772934801615.8093,0.0196,-0.551,-0.8165,2.993,-4.716,-1.759
1772934801615.8093,0.0194,-0.5502,-0.8182,2.922,-4.62,-1.558
1772934801615.8093,0.0206,-0.5503,-0.8165,2.984,-4.567,-1.61
1772934801615.8093,0.018,-0.5503,-0.8175,2.809,-4.497,-1.488
1772934801615.8093,0.0225,-0.5522,-0.8151,2.817,-4.742,-1.452
1772934801615.8093,0.0214,-0.5519,-0.8142,2.896,-4.541,-1.549
1772934801615.8093,0.0238,-0.5512,-0.8221,2.739,-4.454,-1.356
1772934801615.8093,0.0231,-0.5524,-0.8145,2.643,-4.366,-1.295
1772934801615.8093,0.0223,-0.5527,-0.817,2.748,-4.393,-1.216
1772934801615.8093,0.0223,-0.5544,-0.817,2.8,-4.707,-1.19
1772934801615.8093,0.0232,-0.5523,-0.8136,2.783,-4.69,-0.84
1772934801615.8093,0.0225,-0.5493,-0.8153,2.651,-4.436,-0.875
1772934801631.6394,0.0217,-0.5496,-0.8173,2.712,-4.83,-0.998
1772934801631.6394,0.0218,-0.5495,-0.8169,2.896,-4.489,-0.831
1772934801631.6394,0.0235,-0.5475,-0.8187,2.922,-4.524,-0.796
1772934801631.6394,0.0229,-0.5474,-0.8146,2.669,-4.646,-0.805
1772934801631.6394,0.0242,-0.5475,-0.8162,2.634,-4.707,-0.63
1772934801631.6394,0.0239,-0.5478,-0.8129,2.52,-4.664,-0.744
1772934801631.6394,0.0235,-0.5475,-0.8129,2.555,-4.576,-0.551
1772934801631.6394,0.0241,-0.546,-0.8142,2.529,-4.638,-0.709
1772934801631.6394,0.0267,-0.5458,-0.812,2.415,-4.874,-0.507
1772934801631.6394,0.0248,-0.5431,-0.8142,2.441,-4.795,-0.718
1772934801631.6394,0.0234,-0.5423,-0.8165,2.292,-4.751,-0.604
1772934801631.6394,0.0249,-0.5452,-0.8139,2.406,-4.742,-0.831
1772934801631.6394,0.0268,-0.5429,-0.8131,2.406,-4.769,-0.752
1772934801647.1614,0.024,-0.5426,-0.8134,2.555,-4.742,-0.586
1772934801647.1614,0.0274,-0.5427,-0.8131,2.406,-4.76,-0.761
1772934801647.1614,0.0267,-0.5423,-0.8125,2.459,-4.777,-0.858
1772934801647.1614,0.0283,-0.5408,-0.8145,2.52,-4.83,-0.936
1772934801647.1614,0.028,-0.5405,-0.8119,2.424,-4.918,-0.91
1772934801647.1614,0.0251,-0.5436,-0.8128,2.433,-5.189,-1.129
1772934801647.1614,0.027,-0.5446,-0.8112,2.485,-5.162,-1.085
1772934801647.1614,0.0274,-0.5438,-0.8126,2.607,-4.987,-1.05
1772934801647.1614,0.0274,-0.5429,-0.8114,2.704,-5.206,-1.103
1772934801647.1614,0.0262,-0.5444,-0.8118,2.616,-5.381,-1.26
1772934801647.1614,0.0278,-0.5444,-0.8112,2.625,-5.434,-1.208
1772934801647.1614,0.0237,-0.5454,-0.8126,2.774,-5.364,-1.164
1772934801647.1614,0.0265,-0.5442,-0.8101,2.712,-5.39,-1.173
1772934801663.7598,0.0243,-0.5427,-0.812,2.678,-5.346,-1.103
1772934801663.7598,0.0256,-0.5436,-0.8122,2.424,-5.215,-1.199
1772934801663.7598,0.0243,-0.5423,-0.809,2.572,-5.329,-1.129
1772934801663.7598,0.0229,-0.5421,-0.8109,2.59,-5.504,-1.444
1772934801663.7598,0.0262,-0.5451,-0.8113,2.817,-5.486,-1.461
1772934801663.7598,0.0243,-0.543,-0.81,2.704,-5.224,-1.295
1772934801663.7598,0.0236,-0.54,-0.8117,2.826,-5.276,-1.444
1772934801663.7598,0.0271,-0.5416,-0.809,2.817,-5.206,-1.627
1772934801663.7598,0.0289,-0.5415,-0.8089,2.896,-5.303,-1.689
1772934801663.7598,0.0262,-0.5444,-0.8092,2.975,-5.416,-1.776
1772934801663.7598,0.0273,-0.545,-0.81,3.15,-5.556,-1.706
1772934801663.7598,0.0247,-0.5474,-0.8089,3.229,-5.504,-1.846
1772934801663.7598,0.0263,-0.5477,-0.809,3.281,-5.626,-2.004
1772934801679.358,0.0261,-0.5472,-0.8114,3.491,-5.556,-2.161
1772934801679.358,0.0282,-0.5484,-0.8084,3.526,-5.469,-2.118
1772934801679.358,0.0253,-0.5475,-0.8079,3.649,-5.451,-2.161
1772934801679.358,0.027,-0.5487,-0.8089,3.587,-5.101,-2.17
1772934801679.358,0.0242,-0.5475,-0.8114,3.623,-5.189,-2.056
1772934801679.358,0.0264,-0.5469,-0.8097,3.631,-4.909,-1.802
1772934801679.358,0.0262,-0.5466,-0.8103,3.841,-5.11,-1.899
1772934801679.358,0.0245,-0.5449,-0.8127,3.92,-5.058,-2.056
1772934801679.358,0.0263,-0.5465,-0.8148,4.086,-4.891,-2.065
1772934801679.358,0.0242,-0.5446,-0.8129,3.885,-4.874,-2.083
1772934801679.358,0.0239,-0.5465,-0.8112,3.789,-5.014,-2.17
1772934801679.358,0.0232,-0.5449,-0.8126,4.008,-5.014,-2.205
1772934801679.358,0.0218,-0.5428,-0.8139,3.902,-5.031,-2.17
1772934801694.4963,0.0206,-0.5456,-0.8161,3.955,-5.355,-2.065
1772934801694.4963,0.0204,-0.5472,-0.8165,4.051,-5.32,-2.205
1772934801694.4963,0.0203,-0.5473,-0.817,4.121,-5.53,-2.03
1772934801694.4963,0.016,-0.5465,-0.8143,3.868,-5.171,-2.039
1772934801694.4963,0.0202,-0.5453,-0.8154,3.894,-5.46,-2.301
1772934801694.4963,0.0193,-0.547,-0.8146,3.85,-5.478,-2.275
1772934801694.4963,0.0171,-0.5453,-0.8125,3.806,-4.987,-2.249
1772934801694.4963,0.0157,-0.5458,-0.8139,3.658,-5.04,-1.907
1772934801694.4963,0.0156,-0.5483,-0.8157,3.692,-5.18,-1.698
1772934801694.4963,0.0132,-0.5479,-0.8167,3.833,-5.093,-1.969
1772934801694.4963,0.0161,-0.5461,-0.8158,3.482,-5.022,-1.881
1772934801694.4963,0.0153,-0.5477,-0.815,3.43,-4.786,-2.152
1772934801710.1965,0.0151,-0.5458,-0.8158,3.692,-5.232,-1.82
1772934801710.1965,0.0174,-0.5485,-0.8177,3.482,-4.979,-1.75
1772934801710.1965,0.0178,-0.5491,-0.8156,3.596,-5.145,-2.004
1772934801710.1965,0.0162,-0.5481,-0.8164,3.57,-5.189,-1.986
1772934801710.1965,0.0176,-0.5466,-0.815,3.491,-5.136,-1.969
1772934801710.1965,0.0176,-0.5491,-0.8156,3.439,-5.04,-1.96
1772934801710.1965,0.0171,-0.5486,-0.8148,3.666,-5.372,-1.995
1772934801710.1965,0.0182,-0.5502,-0.8178,3.64,-5.372,-2.021
1772934801710.1965,0.019,-0.5512,-0.8166,3.666,-5.154,-1.986
1772934801710.1965,0.0196,-0.5508,-0.8174,3.614,-5.407,-2.17
1772934801710.1965,0.0207,-0.5525,-0.8141,3.395,-5.442,-2.223
1772934801710.1965,0.0184,-0.5514,-0.8162,3.325,-5.25,-2.1
1772934801710.1965,0.0222,-0.552,-0.8145,3.299,-5.416,-1.951
1772934801725.5425,0.0169,-0.5509,-0.8134,3.299,-5.381,-2.039
1772934801725.5425,0.0176,-0.5523,-0.8152,3.369,-5.294,-2.013
1772934801725.5425,0.0185,-0.5507,-0.8124,3.185,-5.364,-2.161
1772934801725.5425,0.019,-0.5506,-0.8119,3.019,-5.486,-2.152
1772934801725.5425,0.0185,-0.5514,-0.8159,3.001,-5.539,-1.978
1772934801725.5425,0.0192,-0.5497,-0.8109,3.036,-5.513,-2.03
1772934801725.5425,0.0191,-0.5503,-0.8129,3.194,-5.521,-2.065
1772934801725.5425,0.0187,-0.5492,-0.8153,3.071,-5.679,-2.1
1772934801725.5425,0.0199,-0.5488,-0.8139,3.167,-5.635,-2.047
1772934801725.5425,0.0192,-0.5478,-0.8134,3.115,-5.364,-2.039
1772934801725.5425,0.0182,-0.5501,-0.813,3.264,-5.407,-2.047
1772934801725.5425,0.0224,-0.5498,-0.8141,3.01,-5.372,-2.056
1772934801741.5625,0.0231,-0.5502,-0.814,2.844,-5.39,-1.951
1772934801741.5625,0.0245,-0.5492,-0.8118,3.185,-5.215,-2.135
1772934801741.5625,0.0262,-0.5504,-0.8111,3.159,-5.364,-2.109
1772934801741.5625,0.0249,-0.5477,-0.8129,3.167,-5.294,-1.934
1772934801741.5625,0.0249,-0.5477,-0.8112,2.817,-4.918,-1.654
1772934801741.5625,0.026,-0.5483,-0.8101,2.984,-5.119,-1.706
1772934801741.5625,0.0264,-0.5505,-0.8102,3.054,-5.101,-1.768
1772934801741.5625,0.0249,-0.55,-0.811,2.975,-5.162,-1.732
1772934801741.5625,0.0243,-0.5493,-0.8114,3.229,-5.259,-1.671
1772934801741.5625,0.0256,-0.5501,-0.8114,3.22,-5.303,-1.645
1772934801741.5625,0.0265,-0.5502,-0.8108,3.132,-5.18,-1.417
1772934801741.5625,0.0242,-0.5481,-0.8104,3.211,-5.539,-1.54
1772934801741.5625,0.0252,-0.5469,-0.8099,3.194,-5.688,-1.663
1772934801757.2163,0.027,-0.5497,-0.8115,3.062,-5.513,-1.549
1772934801757.2163,0.0277,-0.5485,-0.8085,3.325,-5.136,-1.724
1772934801757.2163,0.0285,-0.5528,-0.8103,3.334,-5.154,-1.636
1772934801757.2163,0.0268,-0.5501,-0.8113,3.351,-5.162,-1.724
1772934801757.2163,0.0295,-0.5503,-0.8111,3.211,-4.935,-1.768
1772934801757.2163,0.032,-0.5516,-0.8075,3.404,-5.022,-1.566
1772934801757.2163,0.0293,-0.55,-0.8118,3.299,-4.918,-1.654
1772934801757.2163,0.0284,-0.5475,-0.812,3.255,-4.926,-1.347
1772934801757.2163,0.0296,-0.5481,-0.8103,3.185,-5.232,-1.488
1772934801757.2163,0.0315,-0.5488,-0.8113,3.526,-5.119,-1.4
1772934801757.2163,0.0305,-0.551,-0.8101,3.456,-5.171,-1.496
1772934801757.2163,0.0299,-0.5508,-0.8117,3.544,-5.093,-1.663
1772934801757.2163,0.0284,-0.5489,-0.8122,3.675,-5.049,-1.724
1772934801773.2827,0.0295,-0.5494,-0.8125,3.623,-5.32,-1.864
1772934801773.2827,0.0297,-0.548,-0.8125,3.439,-5.338,-1.671
1772934801773.2827,0.0286,-0.5497,-0.8094,3.491,-5.154,-1.776
1772934801773.2827,0.0272,-0.5485,-0.8112,3.623,-5.04,-1.776
1772934801773.2827,0.0271,-0.5494,-0.8127,3.57,-5.145,-1.995
1772934801773.2827,0.0267,-0.5483,-0.8124,3.587,-5.022,-2.013
1772934801773.2827,0.0266,-0.5512,-0.8126,3.491,-5.022,-1.925
1772934801773.2827,0.0243,-0.5525,-0.813,3.526,-4.944,-1.96
1772934801773.2827,0.0281,-0.5498,-0.814,3.631,-4.769,-2.039
1772934801773.2827,0.0234,-0.5494,-0.8132,3.684,-4.673,-1.829
1772934801773.2827,0.0237,-0.5496,-0.8145,3.474,-4.804,-1.89
1772934801773.2827,0.023,-0.5491,-0.8181,3.745,-5.058,-1.741
1772934801773.2827,0.0211,-0.5513,-0.814,3.526,-4.865,-1.584
1772934801789.259,0.0211,-0.5492,-0.8155,3.482,-4.804,-1.645
1772934801789.259,0.0211,-0.5474,-0.812,3.465,-4.585,-1.601
1772934801789.259,0.0188,-0.5457,-0.8167,3.465,-4.786,-1.802
1772934801789.259,0.0192,-0.5455,-0.812,3.439,-4.979,-1.785
1772934801789.259,0.0207,-0.5464,-0.8128,3.325,-4.83,-1.715
1772934801789.259,0.0217,-0.5483,-0.8171,3.474,-5.11,-1.82
1772934801789.259,0.0211,-0.5471,-0.8196,3.386,-4.97,-1.741
1772934801789.259,0.0201,-0.5459,-0.8174,3.159,-4.839,-1.732
1772934801789.259,0.0204,-0.5455,-0.8191,3.342,-4.821,-1.89
1772934801789.259,0.0196,-0.5459,-0.817,3.334,-4.926,-1.89
1772934801789.259,0.0196,-0.5451,-0.8154,3.325,-4.795,-1.794
1772934801789.259,0.0215,-0.5452,-0.8154,3.439,-4.532,-1.619
1772934801789.259,0.0224,-0.5454,-0.8157,3.001,-4.655,-1.663
1772934801804.7925,0.019,-0.5451,-0.8173,3.342,-4.979,-1.4
1772934801804.7925,0.0221,-0.5443,-0.814,3.316,-4.725,-1.558
1772934801804.7925,0.0193,-0.5455,-0.8181,3.518,-4.839,-1.741
1772934801804.7925,0.0218,-0.5452,-0.8148,3.281,-4.979,-1.426
1772934801804.7925,0.0199,-0.5457,-0.8159,3.334,-5.128,-1.566
1772934801804.7925,0.0193,-0.5451,-0.8151,3.203,-5.022,-1.435
1772934801804.7925,0.0193,-0.5469,-0.8197,3.413,-4.874,-1.347
1772934801804.7925,0.021,-0.5463,-0.8146,3.308,-5.232,-1.645
1772934801804.7925,0.0196,-0.5469,-0.8139,3.246,-5.25,-1.47
1772934801804.7925,0.0216,-0.5456,-0.8146,3.491,-4.821,-1.61
1772934801804.7925,0.021,-0.5474,-0.815,3.474,-4.909,-1.645
1772934801804.7925,0.0191,-0.5441,-0.8137,3.421,-5.101,-1.846
1772934801804.7925,0.0199,-0.5456,-0.8173,3.185,-5.101,-1.619
1772934801820.6765,0.0182,-0.5472,-0.8159,3.308,-4.996,-1.68
1772934801820.6765,0.0192,-0.5459,-0.8179,3.272,-5.058,-1.391
1772934801820.6765,0.0199,-0.5452,-0.8156,3.22,-5.04,-1.619
1772934801820.6765,0.0177,-0.5436,-0.8153,3.15,-5.311,-1.663
1772934801820.6765,0.021,-0.5484,-0.817,3.141,-5.128,-1.619
1772934801820.6765,0.019,-0.5471,-0.8169,3.08,-5.119,-1.768
1772934801820.6765,0.0205,-0.5472,-0.8139,2.835,-5.022,-1.619
1772934801820.6765,0.0219,-0.5466,-0.8131,3.08,-5.241,-1.593
1772934801820.6765,0.0214,-0.5481,-0.8152,3.054,-4.952,-1.671
1772934801820.6765,0.0211,-0.5466,-0.8179,3.106,-5.04,-1.645
1772934801820.6765,0.0248,-0.5472,-0.815,3.43,-5.145,-1.663
1772934801820.6765,0.0232,-0.5475,-0.8161,3.325,-5.189,-1.698
1772934801820.6765,0.0237,-0.5466,-0.814,3.203,-5.25,-1.636
1772934801836.5347,0.0233,-0.5469,-0.8125,3.141,-4.769,-1.829
1772934801836.5347,0.0248,-0.5483,-0.8133,3.22,-5.005,-1.566
1772934801836.5347,0.0251,-0.5463,-0.8141,3.264,-5.197,-1.811
1772934801836.5347,0.0261,-0.5485,-0.8135,3.36,-5.259,-1.593
1772934801836.5347,0.0224,-0.5463,-0.8159,3.325,-5.364,-1.514
1772934801836.5347,0.0262,-0.5489,-0.8123,3.43,-5.381,-1.312
1772934801836.5347,0.0254,-0.5466,-0.8118,3.386,-5.049,-1.435
1772934801836.5347,0.0264,-0.5482,-0.8139,3.264,-5.005,-1.54
1772934801836.5347,0.0281,-0.5491,-0.812,3.272,-5.031,-1.444
1772934801836.5347,0.0266,-0.5483,-0.8103,3.299,-5.434,-1.741
1772934801836.5347,0.0262,-0.5474,-0.814,3.176,-5.407,-1.671
1772934801836.5347,0.0297,-0.5469,-0.8097,3.185,-5.311,-1.75
1772934801852.3894,0.0274,-0.5471,-0.812,3.308,-5.381,-1.54
1772934801852.3894,0.029,-0.5496,-0.8133,3.587,-5.206,-1.663
1772934801852.3894,0.0274,-0.5481,-0.8144,3.658,-5.206,-1.794
1772934801852.3894,0.028,-0.5485,-0.8128,3.351,-5.058,-1.663
1772934801852.3894,0.0283,-0.5503,-0.8144,3.272,-5.154,-1.61
1772934801852.3894,0.0283,-0.5484,-0.8157,3.421,-5.075,-1.715
1772934801852.3894,0.0279,-0.551,-0.8169,3.316,-5.311,-1.881
1772934801852.3894,0.0287,-0.5484,-0.8116,3.369,-5.521,-1.837
1772934801852.3894,0.0284,-0.5495,-0.8123,3.43,-5.294,-1.846
1772934801852.3894,0.028,-0.5508,-0.8186,3.377,-5.232,-1.811
1772934801852.3894,0.0291,-0.5483,-0.8164,3.264,-5.355,-1.741
1772934801852.3894,0.0271,-0.5505,-0.8183,3.264,-5.285,-1.925
1772934801852.3894,0.0281,-0.5505,-0.8182,3.369,-5.268,-1.907
1772934801868.018,0.0276,-0.5517,-0.8172,3.246,-5.232,-1.82
1772934801868.018,0.0291,-0.5513,-0.8158,3.132,-5.285,-1.802
1772934801868.018,0.0273,-0.5499,-0.8136,3.342,-5.224,-1.741
1772934801868.018,0.0264,-0.5519,-0.816,3.561,-5.434,-1.986
1772934801868.018,0.0245,-0.5486,-0.8159,3.36,-5.556,-2.223
1772934801868.018,0.0259,-0.5504,-0.8177,3.377,-5.688,-1.925
1772934801868.018,0.0272,-0.5481,-0.8154,3.421,-5.731,-1.732
1772934801868.018,0.0258,-0.5489,-0.8144,3.334,-5.565,-1.881
1772934801868.018,0.026,-0.5506,-0.8132,3.211,-5.478,-2.03
1772934801868.018,0.0248,-0.5486,-0.8169,3.404,-5.407,-2.056
1772934801868.018,0.0248,-0.5505,-0.8186,3.351,-5.705,-1.925
1772934801868.018,0.0274,-0.5511,-0.8173,3.369,-5.714,-1.995
1772934801868.018,0.0262,-0.5502,-0.8165,3.413,-5.53,-1.802
1772934801883.6167,0.0273,-0.5506,-0.8173,3.439,-5.434,-1.698
1772934801883.6167,0.0273,-0.5516,-0.816,3.351,-5.513,-1.846
1772934801883.6167,0.0279,-0.551,-0.8154,3.316,-5.285,-1.873
1772934801883.6167,0.0282,-0.551,-0.8154,3.57,-5.381,-1.873
1772934801883.6167,0.0278,-0.5505,-0.8157,3.605,-5.548,-1.741
1772934801883.6167,0.0283,-0.5516,-0.8152,3.316,-5.565,-1.724
1772934801883.6167,0.0253,-0.5516,-0.8127,3.334,-5.381,-1.698
1772934801883.6167,0.0265,-0.5513,-0.814,3.526,-5.469,-1.558
1772934801883.6167,0.0262,-0.5524,-0.8169,3.264,-5.565,-1.706
1772934801883.6167,0.0268,-0.552,-0.817,3.43,-5.652,-1.698
1772934801883.6167,0.0234,-0.5514,-0.8143,3.544,-5.819,-1.689
1772934801883.6167,0.0248,-0.552,-0.8142,3.596,-5.626,-1.68
1772934801899.55,0.0254,-0.5497,-0.8139,3.456,-5.845,-1.645
1772934801899.55,0.0247,-0.5503,-0.8126,3.334,-5.626,-1.584
1772934801899.55,0.0249,-0.5505,-0.8129,3.474,-5.793,-1.242
1772934801899.55,0.0229,-0.5505,-0.8154,3.264,-5.574,-1.173
1772934801899.55,0.0225,-0.5466,-0.8163,3.272,-5.609,-1.321
1772934801899.55,0.0259,-0.5492,-0.8141,3.027,-5.574,-1.024
1772934801899.55,0.0248,-0.5483,-0.8156,3.098,-5.303,-1.164
1772934801899.55,0.0218,-0.5487,-0.8126,3.167,-5.495,-1.032
1772934801899.55,0.022,-0.5457,-0.8136,3.159,-5.539,-1.251
1772934801899.55,0.021,-0.5479,-0.8162,3.089,-5.766,-1.19
1772934801899.55,0.0231,-0.5502,-0.812,3.089,-5.407,-1.234
1772934801899.55,0.022,-0.5487,-0.8159,3.229,-5.705,-1.05
1772934801899.55,0.0218,-0.5483,-0.8152,3.062,-5.617,-1.26
1772934801914.9114,0.0227,-0.5491,-0.8148,3.071,-5.714,-1.208
1772934801914.9114,0.0221,-0.5483,-0.8158,2.993,-5.635,-1.181
1772934801914.9114,0.0203,-0.5492,-0.8137,3.062,-5.565,-0.998
1772934801914.9114,0.0231,-0.5481,-0.8141,3.062,-5.486,-0.998
1772934801914.9114,0.0235,-0.5478,-0.8127,2.791,-5.364,-0.884
1772934801914.9114,0.0248,-0.5453,-0.8134,2.712,-5.197,-1.024
1772934801914.9114,0.0238,-0.5451,-0.8133,2.704,-5.25,-0.84
1772934801914.9114,0.0251,-0.5464,-0.8129,2.564,-5.46,-0.901
1772934801914.9114,0.0286,-0.5452,-0.8114,2.599,-5.574,-0.858
1772934801914.9114,0.028,-0.5465,-0.8112,2.809,-5.303,-1.05
1772934801914.9114,0.0273,-0.5466,-0.812,2.686,-5.294,-0.971
1772934801914.9114,0.0303,-0.5456,-0.8146,2.66,-5.25,-0.91
1772934801914.9114,0.0323,-0.5456,-0.8114,2.669,-5.197,-0.989
1772934801930.5303,0.0301,-0.546,-0.8106,2.643,-5.241,-1.479
1772934801930.5303,0.0307,-0.5466,-0.8102,2.529,-5.285,-1.514
1772934801930.5303,0.0312,-0.5466,-0.8131,2.774,-5.407,-1.278
1772934801930.5303,0.0328,-0.5494,-0.8083,2.546,-5.241,-1.426
1772934801930.5303,0.0321,-0.5495,-0.8108,2.546,-5.548,-1.566
1772934801930.5303,0.0321,-0.5467,-0.8103,2.783,-5.32,-1.829
1772934801930.5303,0.0321,-0.5494,-0.8112,2.686,-5.338,-1.732
1772934801930.5303,0.0296,-0.5486,-0.8117,2.844,-5.714,-1.907
1772934801930.5303,0.0315,-0.5488,-0.8124,2.905,-5.714,-2.004
1772934801930.5303,0.0319,-0.5512,-0.8095,2.704,-5.617,-1.995
1772934801930.5303,0.0315,-0.5503,-0.8101,2.643,-5.285,-2.179
1772934801930.5303,0.0307,-0.5504,-0.8137,2.87,-5.53,-1.881
1772934801946.335,0.03,-0.5517,-0.8133,2.748,-5.574,-1.829
1772934801946.335,0.0302,-0.5521,-0.8102,2.756,-5.679,-2.17
1772934801946.335,0.028,-0.5513,-0.8109,2.572,-5.469,-1.899
1772934801946.335,0.0265,-0.5502,-0.8111,2.87,-5.565,-1.855
1772934801946.335,0.0278,-0.5492,-0.8121,2.853,-5.652,-2.126
1772934801946.335,0.0276,-0.5491,-0.8103,3.01,-5.486,-2.126
1772934801946.335,0.0279,-0.5497,-0.811,3.141,-5.425,-1.951
1772934801946.335,0.0283,-0.5489,-0.8117,3.124,-5.521,-1.899
1772934801946.335,0.0303,-0.5466,-0.8097,3.194,-5.6,-2.126
1772934801946.335,0.0304,-0.547,-0.8117,3.325,-5.285,-2.161
1772934801946.335,0.0287,-0.548,-0.8124,3.36,-5.084,-2.126
1772934801946.335,0.029,-0.5491,-0.8124,3.377,-5.478,-2.1
1772934801946.335,0.0265,-0.5484,-0.8126,3.272,-5.504,-2.126
1772934801961.6208,0.0283,-0.5479,-0.8113,3.342,-5.32,-1.846
1772934801961.6208,0.0296,-0.5499,-0.8121,3.377,-5.364,-2.021
1772934801961.6208,0.0284,-0.5494,-0.8115,3.351,-5.372,-1.741
1772934801961.6208,0.029,-0.5507,-0.8143,3.203,-5.215,-2.021
1772934801961.6208,0.0282,-0.5524,-0.8128,3.211,-5.241,-1.881
1772934801961.6208,0.0297,-0.5499,-0.8128,3.351,-5.434,-2.17
1772934801961.6208,0.0281,-0.5508,-0.8148,3.342,-5.268,-2.039
1772934801961.6208,0.0257,-0.5489,-0.8157,3.587,-5.189,-1.75
1772934801961.6208,0.0283,-0.5505,-0.8142,3.29,-5.355,-1.785
1772934801961.6208,0.0289,-0.5496,-0.8117,3.439,-5.434,-1.741
1772934801961.6208,0.0282,-0.5494,-0.8138,3.614,-5.548,-1.776
1772934801961.6208,0.0273,-0.548,-0.812,3.474,-5.548,-1.759
1772934801961.6208,0.0255,-0.5488,-0.8109,3.334,-5.469,-1.558
1772934801977.6892,0.0248,-0.5478,-0.8129,3.465,-5.53,-1.566
1772934801977.6892,0.0248,-0.55,-0.8131,3.587,-5.513,-1.278
1772934801977.6892,0.023,-0.5506,-0.8134,3.623,-5.941,-1.409
1772934801977.6892,0.0249,-0.5499,-0.8126,3.544,-5.862,-1.496
1772934801977.6892,0.026,-0.5494,-0.8158,3.447,-5.399,-1.619
1772934801977.6892,0.0242,-0.5489,-0.811,3.308,-5.346,-1.286
1772934801977.6892,0.0247,-0.5485,-0.8132,3.15,-5.53,-1.19
1772934801977.6892,0.0238,-0.549,-0.8129,3.553,-5.399,-1.225
1772934801977.6892,0.0252,-0.5499,-0.8133,3.325,-5.294,-1.26
1772934801977.6892,0.0238,-0.5505,-0.8162,3.124,-5.407,-0.936
1772934801977.6892,0.0226,-0.5507,-0.8123,3.246,-5.6,-1.208
1772934801977.6892,0.0247,-0.5498,-0.8163,3.124,-5.548,-1.242
1772934801977.6892,0.0245,-0.5479,-0.8136,3.316,-5.478,-1.129
1772934801993.551,0.0254,-0.5481,-0.8101,3.176,-5.854,-1.006
1772934801993.551,0.024,-0.5492,-0.8153,3.045,-5.862,-0.901
1772934801993.551,0.0252,-0.5486,-0.814,2.931,-5.556,-1.12
1772934801993.551,0.0253,-0.5484,-0.8134,2.993,-5.32,-1.006
1772934801993.551,0.0235,-0.5505,-0.814,2.905,-5.565,-0.831
1772934801993.551,0.0237,-0.5496,-0.8129,3.115,-5.565,-0.98
1772934801993.551,0.0244,-0.5499,-0.8161,2.949,-5.548,-0.989
1772934801993.551,0.0247,-0.549,-0.8115,2.87,-5.311,-0.901
1772934801993.551,0.0228,-0.5498,-0.8106,2.817,-5.434,-1.067
1772934801993.551,0.0255,-0.5493,-0.8125,2.616,-5.582,-0.945
1772934801993.551,0.0259,-0.5513,-0.8125,2.721,-5.407,-0.901
1772934801993.551,0.027,-0.5483,-0.8124,2.73,-5.197,-1.356
1772934802009.0671,0.026,-0.5488,-0.8141,2.8,-5.565,-1.347
1772934802009.0671,0.0246,-0.5469,-0.8134,2.8,-5.714,-1.199
1772934802009.0671,0.0242,-0.5478,-0.8136,2.695,-5.364,-1.05
1772934802009.0671,0.0283,-0.5495,-0.8113,2.791,-5.591,-1.146
1772934802009.0671,0.027,-0.5499,-0.8126,2.922,-5.574,-1.295
1772934802009.0671,0.025,-0.5491,-0.814,2.809,-5.53,-1.225
1772934802009.0671,0.0273,-0.55,-0.814,2.993,-5.451,-1.208
1772934802009.0671,0.026,-0.5519,-0.8145,3.08,-5.81,-1.295
1772934802009.0671,0.0283,-0.5503,-0.8142,2.975,-5.705,-1.374
1772934802009.0671,0.0266,-0.552,-0.8137,2.896,-5.416,-1.137
1772934802009.0671,0.0263,-0.5499,-0.8158,2.984,-5.696,-1.032
1772934802009.0671,0.0272,-0.5505,-0.8131,3.01,-5.933,-1.05
1772934802009.0671,0.0292,-0.5517,-0.8128,3.098,-5.862,-1.269
1772934802009.0671,0.0271,-0.5524,-0.814,2.966,-5.652,-1.269
1772934802024.25,0.0266,-0.552,-0.8125,2.922,-5.469,-1.041
1772934802024.25,0.0267,-0.552,-0.8134,3.01,-5.609,-1.286
1772934802024.25,0.0271,-0.5526,-0.8126,3.159,-5.661,-1.339
1772934802024.25,0.0266,-0.5527,-0.812,3.246,-5.53,-1.558
1772934802024.25,0.0259,-0.5525,-0.8156,3.237,-5.311,-1.339
1772934802024.25,0.0244,-0.5541,-0.8147,3.369,-5.565,-1.488
1772934802024.25,0.0249,-0.554,-0.8142,3.132,-5.793,-1.584
1772934802024.25,0.0252,-0.5511,-0.8166,2.914,-5.582,-1.698
1772934802024.25,0.0255,-0.5516,-0.8144,2.774,-5.495,-1.383
1772934802024.25,0.0264,-0.5511,-0.8134,2.966,-5.513,-1.391
1772934802024.25,0.0268,-0.5525,-0.8159,2.87,-5.652,-1.531
1772934802024.25,0.0284,-0.5516,-0.8116,2.87,-5.652,-1.68
1772934802039.5037,0.0256,-0.5524,-0.8154,2.958,-5.696,-1.426
1772934802039.5037,0.0259,-0.552,-0.8141,3.124,-5.924,-1.444
1772934802039.5037,0.0264,-0.5523,-0.8114,3.019,-5.67,-1.347
1772934802039.5037,0.0268,-0.5532,-0.8131,2.975,-5.442,-1.435
1772934802039.5037,0.0284,-0.553,-0.8129,3.019,-5.635,-1.321
1772934802039.5037,0.0284,-0.5502,-0.8141,2.87,-5.617,-1.19
1772934802039.5037,0.0276,-0.5511,-0.8142,2.817,-5.591,-1.488
1772934802039.5037,0.0257,-0.5513,-0.8154,2.984,-5.582,-1.558
1772934802039.5037,0.026,-0.5527,-0.8153,3.159,-5.364,-1.488
1772934802039.5037,0.0251,-0.5489,-0.8127,3.071,-5.53,-1.505
1772934802039.5037,0.0281,-0.5488,-0.8144,3.115,-5.442,-1.724
1772934802039.5037,0.0256,-0.5488,-0.8144,2.765,-5.74,-1.531
1772934802054.847,0.0264,-0.5481,-0.8117,2.826,-5.906,-1.741
1772934802054.847,0.0252,-0.5489,-0.8164,2.87,-5.801,-1.549
1772934802054.847,0.0237,-0.5483,-0.8141,2.905,-5.793,-1.496
1772934802054.847,0.0246,-0.5477,-0.8135,2.809,-5.635,-1.426
1772934802054.847,0.0253,-0.548,-0.814,2.765,-5.81,-1.444
1772934802054.847,0.026,-0.5492,-0.8131,2.853,-5.548,-1.435
1772934802054.847,0.0246,-0.5499,-0.8151,2.896,-5.381,-1.33
1772934802054.847,0.0226,-0.5493,-0.8129,2.774,-5.626,-1.155
1772934802054.847,0.0227,-0.5493,-0.8133,2.686,-5.495,-1.137
1772934802054.847,0.0202,-0.5513,-0.8138,2.643,-5.609,-1.181
1772934802054.847,0.0209,-0.549,-0.8158,2.59,-5.539,-1.216
1772934802054.847,0.0201,-0.5492,-0.8141,2.739,-5.574,-1.4
1772934802070.4255,0.0214,-0.5481,-0.8153,2.511,-5.434,-1.076
1772934802070.4255,0.0192,-0.5481,-0.8199,2.546,-5.801,-1.312
1772934802070.4255,0.0212,-0.5467,-0.8167,2.739,-5.652,-1.33
1772934802070.4255,0.017,-0.5457,-0.8134,2.651,-5.74,-1.339
1772934802070.4255,0.0207,-0.545,-0.8129,2.756,-5.862,-1.391
1772934802070.4255,0.021,-0.5439,-0.8152,2.721,-5.924,-1.146
1772934802070.4255,0.0228,-0.546,-0.8119,2.546,-5.652,-1.05
1772934802070.4255,0.0222,-0.5463,-0.8104,2.643,-5.53,-1.242
1772934802070.4255,0.0198,-0.5477,-0.814,2.616,-5.635,-1.225
1772934802070.4255,0.0196,-0.5463,-0.8128,2.257,-5.644,-1.216
1772934802070.4255,0.0203,-0.5469,-0.8118,2.485,-5.827,-1.173
1772934802070.4255,0.022,-0.5497,-0.8101,2.529,-5.793,-1.269
1772934802070.4255,0.0221,-0.5478,-0.815,2.433,-5.749,-1.085
1772934802086.0188,0.0228,-0.5494,-0.8102,2.441,-5.539,-0.858
1772934802086.0188,0.0221,-0.55,-0.8113,2.494,-5.434,-0.945
1772934802086.0188,0.0212,-0.5507,-0.8145,2.748,-5.758,-0.954
1772934802086.0188,0.022,-0.5483,-0.8109,2.651,-5.985,-0.954
1772934802086.0188,0.0217,-0.5497,-0.8114,2.424,-5.39,-0.752
1772934802086.0188,0.0242,-0.5486,-0.8094,2.389,-5.495,-0.796
1772934802086.0188,0.0251,-0.5461,-0.8092,2.31,-5.591,-0.831
1772934802086.0188,0.0227,-0.5465,-0.8133,2.476,-5.758,-1.032
1772934802086.0188,0.0243,-0.5491,-0.8112,2.362,-5.53,-1.094
1772934802086.0188,0.0235,-0.5465,-0.8105,2.397,-5.696,-0.927
1772934802086.0188,0.0239,-0.5464,-0.8128,2.415,-5.793,-1.242
1772934802086.0188,0.0259,-0.5473,-0.8118,2.712,-5.775,-1.173
1772934802086.0188,0.0261,-0.5461,-0.81,2.59,-5.81,-1.426
1772934802101.9946,0.0278,-0.547,-0.8136,2.783,-5.644,-1.208
1772934802101.9946,0.0295,-0.5474,-0.8137,2.607,-5.521,-1.26
1772934802101.9946,0.0288,-0.5458,-0.8133,2.634,-5.451,-1.759
1772934802101.9946,0.0287,-0.5429,-0.8132,2.748,-5.582,-1.811
1772934802101.9946,0.0285,-0.5453,-0.8128,2.888,-5.556,-1.619
1772934802101.9946,0.0298,-0.5453,-0.8123,2.922,-5.6,-1.33
1772934802101.9946,0.0288,-0.5463,-0.8127,2.879,-5.652,-1.619
1772934802101.9946,0.0276,-0.5486,-0.8126,3.019,-5.469,-1.689
1772934802101.9946,0.0288,-0.5467,-0.8137,2.975,-5.81,-1.689
1772934802101.9946,0.0289,-0.5471,-0.8106,3.194,-6.055,-1.715
1772934802101.9946,0.0281,-0.5496,-0.8101,3.211,-6.046,-1.654
1772934802101.9946,0.0285,-0.5476,-0.8094,3.019,-5.521,-1.531
1772934802101.9946,0.0273,-0.5492,-0.8106,3.089,-5.688,-1.61
1772934802117.331,0.0262,-0.5495,-0.8101,3.071,-5.652,-1.566
1772934802117.331,0.0281,-0.5506,-0.8113,3.544,-5.46,-1.452
1772934802117.331,0.026,-0.5494,-0.8119,3.623,-5.758,-1.304
1772934802117.331,0.0266,-0.5502,-0.8127,3.395,-5.451,-1.356
1772934802117.331,0.0259,-0.5475,-0.8095,3.526,-5.381,-1.146
1772934802117.331,0.0267,-0.5457,-0.8126,3.377,-5.338,-1.531
1772934802117.331,0.0262,-0.5466,-0.8125,3.272,-5.381,-1.409
1772934802117.331,0.0255,-0.5464,-0.8151,3.255,-5.425,-1.4
1772934802117.331,0.0257,-0.5489,-0.8159,3.167,-5.206,-1.33
1772934802117.331,0.0244,-0.5505,-0.8161,3.413,-5.049,-1.4
1772934802117.331,0.0237,-0.5504,-0.8163,3.421,-5.381,-1.435
1772934802117.331,0.0227,-0.5488,-0.8197,3.518,-5.679,-1.715
1772934802133.229,0.0227,-0.5498,-0.8141,3.246,-5.661,-1.505
1772934802133.229,0.0233,-0.5494,-0.8155,3.264,-5.652,-1.601
1772934802133.229,0.0209,-0.5509,-0.8169,3.194,-5.442,-1.741
1772934802133.229,0.0188,-0.5511,-0.8146,3.124,-5.504,-1.575
1772934802133.229,0.0195,-0.5495,-0.8174,3.019,-5.425,-1.724
1772934802133.229,0.0178,-0.5479,-0.818,2.879,-5.478,-1.61
1772934802133.229,0.0196,-0.5508,-0.8189,2.87,-5.565,-1.654
1772934802133.229,0.0184,-0.5496,-0.8186,3.054,-5.819,-1.531
1772934802133.229,0.0215,-0.5481,-0.817,2.765,-5.504,-1.356
1772934802133.229,0.021,-0.5486,-0.8186,2.783,-5.442,-1.391
1772934802133.229,0.0196,-0.5469,-0.8174,2.809,-5.486,-1.417
1772934802133.229,0.0179,-0.5478,-0.8162,2.748,-5.32,-1.514
1772934802133.229,0.0203,-0.5472,-0.8151,2.975,-5.329,-1.312
1772934802149.7834,0.0195,-0.5464,-0.8164,2.844,-5.495,-1.129
1772934802149.7834,0.019,-0.5463,-0.8151,2.966,-5.416,-1.12
1772934802149.7834,0.0196,-0.5469,-0.8161,2.765,-5.495,-1.435
1772934802149.7834,0.0229,-0.5471,-0.815,2.931,-5.976,-1.409
1772934802149.7834,0.0217,-0.5485,-0.8143,2.922,-5.827,-1.435
1772934802149.7834,0.0234,-0.5508,-0.8145,2.774,-5.81,-1.426
1772934802149.7834,0.0225,-0.5492,-0.8125,2.678,-5.652,-1.216
1772934802149.7834,0.0223,-0.5492,-0.8134,2.651,-5.661,-1.417
1772934802149.7834,0.0223,-0.5497,-0.8145,2.643,-6.003,-1.339
1772934802149.7834,0.0215,-0.5508,-0.8126,2.695,-6.029,-1.409
1772934802149.7834,0.0238,-0.5491,-0.8153,2.607,-5.705,-1.514
1772934802149.7834,0.022,-0.5492,-0.8153,2.66,-5.766,-1.61
1772934802149.7834,0.0226,-0.5478,-0.8115,2.572,-5.513,-1.374
1772934802165.2466,0.0231,-0.5485,-0.8143,2.616,-5.793,-1.242
1772934802165.2466,0.0209,-0.551,-0.8138,2.45,-5.793,-1.435
1772934802165.2466,0.0208,-0.5524,-0.8142,2.284,-5.81,-1.706
1772934802165.2466,0.0199,-0.5503,-0.8162,2.354,-5.819,-1.75
1772934802165.2466,0.0235,-0.5487,-0.8162,2.389,-5.705,-1.732
1772934802165.2466,0.0215,-0.5507,-0.8169,2.441,-5.793,-1.505
1772934802165.2466,0.0201,-0.5483,-0.8152,2.354,-5.836,-1.934
1772934802165.2466,0.0232,-0.5485,-0.8117,2.634,-5.906,-1.951
1772934802165.2466,0.0213,-0.5488,-0.8115,2.555,-6.23,-2.013
1772934802165.2466,0.024,-0.547,-0.812,2.459,-5.635,-1.978
1772934802165.2466,0.0207,-0.5485,-0.8112,2.362,-5.766,-1.732
1772934802165.2466,0.0214,-0.5473,-0.812,2.476,-5.88,-1.689
1772934802165.2466,0.0231,-0.5486,-0.8103,2.817,-5.819,-1.899
1772934802181.177,0.0201,-0.5475,-0.8121,2.546,-5.661,-1.584
1772934802181.177,0.0228,-0.5491,-0.8123,2.424,-5.565,-1.593
1772934802181.177,0.0233,-0.5475,-0.8135,2.52,-5.871,-1.864
1772934802181.177,0.022,-0.5472,-0.813,2.485,-5.731,-1.732
1772934802181.177,0.0213,-0.547,-0.815,2.275,-5.635,-1.47
1772934802181.177,0.0201,-0.5495,-0.8134,2.59,-5.81,-1.593
1772934802181.177,0.0218,-0.551,-0.8131,2.564,-5.758,-1.383
1772934802181.177,0.0217,-0.5467,-0.8131,2.529,-5.897,-1.593
1772934802181.177,0.0235,-0.5475,-0.8128,2.651,-5.801,-1.715
1772934802181.177,0.0234,-0.5467,-0.812,2.678,-5.661,-1.593
1772934802181.177,0.0239,-0.5479,-0.8152,2.572,-5.924,-1.61
1772934802181.177,0.0223,-0.5494,-0.8117,2.45,-6.221,-1.627
1772934802181.177,0.0241,-0.5513,-0.8148,2.712,-6.029,-1.689
1772934802196.3616,0.024,-0.5489,-0.8162,2.538,-5.81,-1.663
1772934802196.3616,0.0227,-0.5484,-0.8157,2.695,-5.871,-1.741
1772934802196.3616,0.0245,-0.5485,-0.8152,2.389,-6.011,-1.575
1772934802196.3616,0.0236,-0.5483,-0.8181,2.406,-5.889,-1.698
1772934802196.3616,0.0226,-0.5452,-0.8137,2.546,-5.819,-1.768
1772934802196.3616,0.0246,-0.5483,-0.8124,2.433,-5.661,-1.68
1772934802196.3616,0.0239,-0.548,-0.8156,2.538,-5.652,-1.461
1772934802196.3616,0.0243,-0.5498,-0.814,2.502,-5.617,-1.339
1772934802196.3616,0.0231,-0.5477,-0.8151,2.599,-5.819,-1.558
1772934802196.3616,0.0243,-0.5477,-0.8161,2.984,-5.679,-1.636
1772934802196.3616,0.024,-0.5465,-0.8111,2.599,-5.513,-1.312
1772934802196.3616,0.0229,-0.5474,-0.8164,2.59,-5.495,-1.531
1772934802211.9602,0.0251,-0.5445,-0.8151,2.73,-5.495,-1.383
1772934802211.9602,0.0249,-0.546,-0.8119,2.835,-5.775,-1.47
1772934802211.9602,0.0248,-0.5468,-0.8177,2.607,-5.548,-1.61
1772934802211.9602,0.0247,-0.5455,-0.8152,2.651,-5.574,-1.225
1772934802211.9602,0.0246,-0.5452,-0.8154,2.94,-5.513,-0.971
1772934802211.9602,0.024,-0.5444,-0.8147,2.529,-5.469,-1.234
1772934802211.9602,0.0224,-0.5446,-0.8151,2.319,-5.399,-1.155
1772934802211.9602,0.0247,-0.5478,-0.817,2.415,-5.381,-0.998
1772934802211.9602,0.024,-0.5474,-0.8134,2.24,-5.53,-1.26
1772934802211.9602,0.0225,-0.5488,-0.8137,2.328,-5.329,-0.936
1772934802211.9602,0.0218,-0.5489,-0.8173,2.231,-5.46,-0.884
1772934802211.9602,0.0229,-0.5507,-0.8161,2.223,-5.556,-0.971
1772934802211.9602,0.0218,-0.5474,-0.8159,2.1,-5.862,-0.971
1772934802227.343,0.0217,-0.5495,-0.8137,2.056,-5.985,-0.945
1772934802227.343,0.0209,-0.5486,-0.8139,2.091,-6.064,-1.111
1772934802227.343,0.0224,-0.5503,-0.8156,2.074,-6.116,-0.963
1772934802227.343,0.021,-0.5522,-0.814,2.013,-6.125,-1.041
1772934802227.343,0.0232,-0.5549,-0.8092,1.96,-6.046,-1.094
1772934802227.343,0.0224,-0.5538,-0.8087,1.925,-6.204,-1.129
1772934802227.343,0.0213,-0.5528,-0.809,2.004,-6.204,-1.12
1772934802227.343,0.022,-0.5544,-0.8093,2.074,-6.204,-1.444
1772934802227.343,0.0215,-0.5528,-0.8095,1.986,-6.029,-1.479
1772934802227.343,0.0223,-0.5531,-0.8093,1.864,-6.169,-1.584
1772934802227.343,0.0197,-0.5524,-0.8096,2.047,-6.081,-1.505
1772934802227.343,0.0223,-0.5542,-0.8094,1.864,-5.941,-1.488
1772934802227.343,0.0248,-0.5542,-0.8064,2.109,-5.819,-1.636
1772934802242.882,0.0212,-0.551,-0.8065,1.942,-6.151,-1.531
1772934802242.882,0.0216,-0.5525,-0.8062,1.732,-6.256,-1.671
1772934802242.882,0.0216,-0.5527,-0.8033,1.601,-5.985,-1.549
1772934802242.882,0.025,-0.5532,-0.8001,1.802,-6.221,-1.47
1772934802242.882,0.023,-0.5528,-0.8023,1.837,-6.457,-1.488
1772934802242.882,0.0256,-0.553,-0.8039,1.741,-6.326,-1.698
1772934802242.882,0.0254,-0.5529,-0.8052,1.916,-6.501,-1.663
1772934802242.882,0.0238,-0.5517,-0.8031,1.995,-6.659,-1.461
1772934802242.882,0.0244,-0.5506,-0.8046,2.301,-6.624,-1.575
1772934802242.882,0.0228,-0.5472,-0.8054,2.433,-6.641,-1.671
1772934802242.882,0.0226,-0.5472,-0.8047,2.59,-6.562,-1.409
1772934802242.882,0.0223,-0.5459,-0.803,2.791,-6.37,-1.286
1772934802258.079,0.0222,-0.5449,-0.8059,2.931,-6.029,-1.409
1772934802258.079,0.0209,-0.5429,-0.804,3.308,-5.941,-1.146
1772934802258.079,0.0193,-0.5436,-0.8061,3.57,-5.416,-1.251
1772934802258.079,0.0187,-0.5447,-0.8056,3.465,-5.171,-1.347
1772934802258.079,0.021,-0.5439,-0.8052,3.421,-4.996,-1.33
1772934802258.079,0.0196,-0.545,-0.8072,3.71,-4.734,-1.26
1772934802258.079,0.0209,-0.5444,-0.8077,3.85,-4.48,-1.155
1772934802258.079,0.0213,-0.5438,-0.8134,3.92,-4.401,-1.208
1772934802258.079,0.0219,-0.5429,-0.8126,3.833,-4.235,-0.98
1772934802258.079,0.0228,-0.5422,-0.815,3.797,-4.366,-1.234
1772934802258.079,0.0225,-0.5431,-0.8158,4.077,-4.2,-1.103
1772934802258.079,0.0245,-0.5399,-0.8163,4.008,-4.077,-1.059
1772934802273.2932,0.027,-0.5414,-0.8186,4.121,-3.92,-0.814
1772934802273.2932,0.0249,-0.54,-0.8178,4.27,-3.946,-1.041
1772934802273.2932,0.0273,-0.5381,-0.8187,4.06,-3.684,-0.814
1772934802273.2932,0.0274,-0.5386,-0.8191,4.112,-3.911,-0.875
1772934802273.2932,0.0306,-0.5375,-0.821,4.095,-3.99,-1.076
1772934802273.2932,0.0315,-0.5377,-0.8215,3.946,-3.841,-0.849
1772934802273.2932,0.0337,-0.5371,-0.8236,3.605,-3.92,-0.858
1772934802273.2932,0.0338,-0.5357,-0.824,3.482,-3.938,-0.875
1772934802273.2932,0.0359,-0.5377,-0.8237,3.518,-3.955,-0.823
1772934802273.2932,0.034,-0.5364,-0.824,3.246,-3.911,-0.84
1772934802273.2932,0.0366,-0.5368,-0.8237,3.246,-3.876,-1.024
1772934802273.2932,0.0361,-0.5359,-0.8218,3.045,-3.815,-1.216
1772934802273.2932,0.0353,-0.5362,-0.8214,2.984,-4.218,-1.041
1772934802289.4187,0.0355,-0.5375,-0.821,2.826,-4.357,-1.19
1772934802289.4187,0.0334,-0.5369,-0.8207,2.634,-4.2,-1.304
1772934802289.4187,0.0354,-0.5389,-0.8215,2.625,-4.419,-1.461
1772934802289.4187,0.0327,-0.5392,-0.8204,2.555,-4.261,-1.47
1772934802289.4187,0.0333,-0.5403,-0.8207,2.476,-4.147,-1.488
1772934802289.4187,0.0329,-0.5444,-0.8192,2.362,-4.699,-1.522
1772934802289.4187,0.0307,-0.5433,-0.8179,2.196,-4.585,-1.514
1772934802289.4187,0.0322,-0.5457,-0.8196,2.152,-4.795,-1.706
1772934802289.4187,0.0318,-0.5487,-0.8202,1.785,-4.62,-1.741
1772934802289.4187,0.0315,-0.5487,-0.8175,1.899,-4.454,-1.566
1772934802289.4187,0.0321,-0.5528,-0.8154,1.627,-4.673,-1.549
1772934802289.4187,0.0319,-0.5544,-0.8131,1.732,-4.629,-1.584
1772934802304.864,0.0281,-0.5554,-0.8108,1.706,-4.585,-1.706
1772934802304.864,0.0296,-0.5542,-0.8129,1.531,-4.804,-1.619
1772934802304.864,0.0293,-0.5583,-0.8113,1.452,-4.646,-1.619
1772934802304.864,0.027,-0.5596,-0.8131,1.374,-4.777,-1.837
1772934802304.864,0.0263,-0.5612,-0.8101,1.444,-4.725,-1.514
1772934802304.864,0.0278,-0.5625,-0.8129,1.356,-4.742,-1.391
1772934802304.864,0.0282,-0.56,-0.8124,1.347,-4.874,-1.461
1772934802304.864,0.0251,-0.56,-0.8106,1.164,-4.9,-1.715
1772934802304.864,0.0253,-0.5616,-0.8109,1.391,-4.742,-1.593
1772934802304.864,0.0228,-0.5621,-0.812,1.724,-4.961,-1.82
1772934802304.864,0.0215,-0.5602,-0.8115,1.776,-5.049,-1.829
1772934802304.864,0.0218,-0.56,-0.8073,1.785,-5.364,-1.776
1772934802304.864,0.019,-0.5593,-0.812,1.741,-5.232,-2.1
1772934802319.8025,0.0204,-0.5584,-0.8145,1.934,-5.6,-1.986
1772934802319.8025,0.0202,-0.5566,-0.8134,2.161,-5.469,-1.899
1772934802319.8025,0.0211,-0.5559,-0.8136,2.389,-5.46,-1.724
1772934802319.8025,0.0196,-0.5556,-0.8137,2.643,-5.53,-1.531
1772934802319.8025,0.0193,-0.5539,-0.8177,2.625,-5.766,-1.768
1772934802319.8025,0.0187,-0.5526,-0.8167,2.634,-5.574,-1.802
1772934802319.8025,0.0176,-0.5511,-0.8161,2.966,-5.705,-1.82
1772934802319.8025,0.0166,-0.5508,-0.8176,3.141,-5.941,-1.654
1772934802319.8025,0.0144,-0.5519,-0.823,3.29,-6.055,-1.724
1772934802319.8025,0.0162,-0.5479,-0.8242,3.404,-6.256,-1.575
1772934802319.8025,0.0142,-0.5483,-0.8283,3.692,-6.405,-1.627
1772934802319.8025,0.0126,-0.5459,-0.8339,3.771,-6.772,-1.584
1772934802335.8333,0.0168,-0.5426,-0.8356,4.139,-6.834,-1.601
1772934802335.8333,0.0129,-0.5408,-0.8389,4.366,-7.122,-1.802
1772934802335.8333,0.0143,-0.5373,-0.8434,4.603,-7.385,-1.593
1772934802335.8333,0.0123,-0.5377,-0.846,4.646,-7.376,-1.663
1772934802335.8333,0.0118,-0.5355,-0.8505,4.856,-7.91,-1.61
1772934802335.8333,0.0127,-0.5334,-0.8512,4.76,-8.234,-1.916
1772934802335.8333,0.0131,-0.5309,-0.8569,4.856,-8.741,-2.013
1772934802335.8333,0.0142,-0.5336,-0.8616,4.961,-8.82,-2.205
1772934802335.8333,0.0126,-0.5346,-0.8619,4.856,-9.24,-2.144
1772934802335.8333,0.0144,-0.5345,-0.8665,4.664,-9.459,-2.284
1772934802335.8333,0.0159,-0.5364,-0.8669,4.567,-10.203,-2.415
1772934802335.8333,0.0135,-0.5364,-0.8644,4.357,-10.57,-2.774
1772934802335.8333,0.0153,-0.5411,-0.866,4.034,-11.034,-2.949
1772934802351.865,0.0167,-0.5403,-0.8619,3.92,-11.506,-2.826
1772934802351.865,0.019,-0.543,-0.8598,3.623,-12.014,-2.993
1772934802351.865,0.0192,-0.5455,-0.8589,2.817,-12.127,-2.993
1772934802351.865,0.0249,-0.5472,-0.8533,2.721,-12.346,-2.94
1772934802351.865,0.0244,-0.5492,-0.8512,2.161,-12.723,-3.115
1772934802351.865,0.0241,-0.549,-0.8478,1.75,-12.731,-2.853
1772934802351.865,0.0262,-0.5513,-0.8394,1.234,-12.591,-2.783
1772934802351.865,0.0282,-0.5523,-0.8362,0.901,-12.547,-2.774
1772934802351.865,0.0301,-0.5484,-0.83,0.534,-12.635,-2.861
1772934802351.865,0.0315,-0.5482,-0.825,0.394,-12.556,-2.362
1772934802351.865,0.0327,-0.549,-0.8239,0.359,-12.364,-2.196
1772934802351.865,0.034,-0.5497,-0.8218,0.14,-12.346,-2.17
1772934802351.865,0.0345,-0.5466,-0.8187,-0.052,-12.066,-1.969
1772934802367.409,0.0361,-0.5483,-0.8167,0.052,-11.786,-1.829
1772934802367.409,0.0368,-0.549,-0.8154,0.201,-11.366,-1.575
1772934802367.409,0.0365,-0.5491,-0.8136,0.018,-10.806,-1.549
1772934802367.409,0.0391,-0.5503,-0.8122,0.096,-10.623,-1.444
1772934802367.409,0.0407,-0.5511,-0.8101,0.403,-10.456,-1.356
1772934802367.409,0.0377,-0.5521,-0.8103,0.49,-10.255,-1.208
1772934802367.409,0.0373,-0.5541,-0.8122,0.752,-9.765,-1.129
1772934802367.409,0.0364,-0.5541,-0.8108,0.656,-9.66,-0.963
1772934802367.409,0.0365,-0.5541,-0.8095,0.691,-9.205,-0.569
1772934802367.409,0.037,-0.5546,-0.8145,0.647,-9.258,-0.989
1772934802367.409,0.037,-0.5547,-0.8133,0.884,-9.135,-0.963
1772934802367.409,0.0361,-0.5539,-0.8163,1.032,-8.881,-0.831
1772934802367.409,0.0328,-0.5547,-0.8129,1.12,-8.741,-1.067
1772934802382.8877,0.033,-0.5556,-0.8119,1.19,-8.75,-1.05
1772934802382.8877,0.0289,-0.5532,-0.8102,1.015,-8.715,-1.155
1772934802382.8877,0.03,-0.5538,-0.8109,1.146,-8.925,-1.164
1772934802382.8877,0.0267,-0.5539,-0.8089,1.452,-8.68,-1.295
1772934802382.8877,0.0215,-0.5563,-0.8048,1.566,-8.645,-1.426
1772934802382.8877,0.0232,-0.5556,-0.8043,1.409,-8.295,-1.295
1772934802382.8877,0.0248,-0.5571,-0.8009,1.54,-8.505,-1.286
1772934802382.8877,0.022,-0.5574,-0.7991,1.881,-8.654,-1.33
1772934802382.8877,0.0188,-0.5597,-0.7978,2.24,-8.873,-1.54
1772934802382.8877,0.0195,-0.5583,-0.7923,2.354,-8.811,-1.531
1772934802382.8877,0.0201,-0.5627,-0.7916,2.643,-8.636,-1.304
1772934802382.8877,0.021,-0.5605,-0.7895,2.616,-8.19,-1.33
1772934802398.383,0.0207,-0.5622,-0.786,2.87,-8.269,-1.304
1772934802398.383,0.0227,-0.5633,-0.783,2.853,-8.12,-1.479
1772934802398.383,0.0202,-0.5642,-0.7804,2.949,-8.033,-1.251
1772934802398.383,0.0198,-0.5649,-0.777,3.045,-7.77,-0.779
1772934802398.383,0.0206,-0.5628,-0.7788,2.975,-7.166,-0.779
1772934802398.383,0.0239,-0.5618,-0.7788,3.098,-6.86,-0.726
1772934802398.383,0.0243,-0.5585,-0.777,3.062,-6.326,-0.858
1772934802398.383,0.0278,-0.5595,-0.7763,3.071,-5.836,-0.814
1772934802398.383,0.0266,-0.5569,-0.7765,3.185,-5.976,-0.866
1772934802398.383,0.0271,-0.5534,-0.776,3.439,-5.968,-0.613
1772934802398.383,0.0289,-0.5532,-0.7766,3.413,-5.46,-0.779
1772934802398.383,0.0252,-0.5522,-0.7773,3.167,-5.259,-0.858
1772934802398.383,0.0268,-0.5496,-0.7818,3.089,-5.329,-1.015
1772934802413.4075,0.026,-0.5483,-0.7808,3.071,-5.093,-1.137
1772934802413.4075,0.0276,-0.5478,-0.7804,3.342,-5.049,-1.225
1772934802413.4075,0.0259,-0.5455,-0.7827,3.299,-5.049,-1.549
1772934802413.4075,0.0233,-0.5452,-0.7815,3.316,-5.25,-1.488
1772934802413.4075,0.021,-0.544,-0.7874,3.386,-5.101,-1.654
1772934802413.4075,0.0205,-0.5419,-0.7892,3.272,-5.215,-1.593
1772934802413.4075,0.0181,-0.5392,-0.7868,3.194,-5.32,-1.706
1772934802413.4075,0.0165,-0.538,-0.7922,2.809,-4.856,-1.776
1772934802413.4075,0.0149,-0.542,-0.7923,2.783,-5.241,-1.82
1772934802413.4075,0.0134,-0.5417,-0.7899,2.835,-5.049,-1.82
1772934802413.4075,0.0132,-0.5397,-0.796,2.712,-5.049,-2.039
1772934802413.4075,0.0105,-0.5402,-0.7987,2.581,-5.329,-2.223
1772934802429.513,0.008,-0.5389,-0.7962,2.686,-5.582,-2.24
1772934802429.513,0.0077,-0.5392,-0.7997,2.922,-5.582,-2.511
1772934802429.513,0.0062,-0.5394,-0.7984,2.783,-5.793,-2.441
1772934802429.513,0.0048,-0.5372,-0.8017,2.686,-5.784,-2.214
1772934802429.513,0.005,-0.5358,-0.8035,2.94,-6.107,-2.397
1772934802429.513,0.005,-0.5361,-0.8042,2.739,-6.195,-2.17
1772934802429.513,0.0046,-0.5362,-0.8031,2.966,-6.204,-2.004
1772934802429.513,0.0052,-0.5362,-0.8033,3.027,-6.317,-2.109
1772934802429.513,0.0053,-0.5345,-0.8052,3.308,-6.317,-2.24
1772934802429.513,0.0043,-0.5342,-0.8068,3.115,-6.186,-1.969
1772934802429.513,0.0054,-0.5337,-0.8075,3.132,-6.055,-1.759
1772934802429.513,0.0056,-0.5327,-0.8093,3.15,-6.02,-1.776
1772934802429.513,0.0085,-0.5349,-0.8084,3.08,-6.064,-1.698
1772934802445.3735,0.0063,-0.5358,-0.8095,3.159,-6.064,-1.636
1772934802445.3735,0.0109,-0.5364,-0.8106,3.325,-6.624,-1.505
1772934802445.3735,0.0104,-0.5364,-0.8108,3.404,-6.379,-1.356
1772934802445.3735,0.0111,-0.5345,-0.8112,3.316,-6.335,-1.444
1772934802445.3735,0.0124,-0.5357,-0.8121,3.342,-6.213,-1.365
1772934802445.3735,0.0143,-0.5367,-0.8166,3.264,-6.055,-1.444
1772934802445.3735,0.0145,-0.5366,-0.8146,3.404,-5.976,-1.321
1772934802445.3735,0.0151,-0.5369,-0.8115,3.57,-5.88,-1.496
1772934802445.3735,0.0155,-0.5393,-0.8144,3.544,-6.239,-1.286
1772934802445.3735,0.0167,-0.5381,-0.8165,3.544,-6.107,-1.479
1772934802445.3735,0.0146,-0.5359,-0.815,3.377,-6.064,-1.33
1772934802445.3735,0.0192,-0.5374,-0.8158,3.456,-5.749,-1.356
1772934802445.3735,0.0196,-0.5378,-0.8163,3.447,-5.793,-1.391
1772934802460.6565,0.0205,-0.5412,-0.8173,3.518,-5.862,-1.347
1772934802460.6565,0.0228,-0.5408,-0.8202,3.43,-5.793,-1.286
1772934802460.6565,0.0246,-0.5391,-0.8176,3.176,-5.556,-1.269
1772934802460.6565,0.0229,-0.5408,-0.8184,3.237,-5.495,-1.514
1772934802460.6565,0.0214,-0.5419,-0.8154,3.098,-5.407,-1.514
1772934802460.6565,0.0214,-0.5424,-0.8167,2.993,-5.469,-1.383
1772934802460.6565,0.0234,-0.5427,-0.8165,3.15,-5.556,-1.505
1772934802460.6565,0.0251,-0.543,-0.8192,3.089,-5.407,-1.496
1772934802460.6565,0.0198,-0.5437,-0.8183,3.027,-5.084,-1.47
1772934802460.6565,0.0243,-0.5436,-0.8186,2.896,-5.171,-1.689
1772934802460.6565,0.0247,-0.5466,-0.8156,3.098,-5.329,-1.522
1772934802460.6565,0.0234,-0.5456,-0.8164,2.949,-5.066,-1.663
1772934802460.6565,0.0234,-0.5466,-0.8162,2.651,-5.049,-1.619
1772934802475.9019,0.0235,-0.5447,-0.818,2.931,-5.066,-1.566
1772934802475.9019,0.0228,-0.5455,-0.8167,2.861,-4.848,-1.522
1772934802475.9019,0.0247,-0.5482,-0.8184,2.748,-4.848,-1.496
1772934802475.9019,0.0249,-0.5474,-0.8176,2.879,-5.031,-1.68
1772934802475.9019,0.0247,-0.5503,-0.8168,2.826,-4.883,-1.698
1772934802475.9019,0.0245,-0.55,-0.8163,2.538,-4.734,-1.339
1772934802475.9019,0.0222,-0.5522,-0.8174,2.52,-4.734,-1.216
1772934802475.9019,0.0246,-0.5516,-0.8173,2.223,-4.725,-1.339
1772934802475.9019,0.0235,-0.551,-0.8211,2.572,-4.742,-1.426
1772934802475.9019,0.0227,-0.552,-0.8161,2.511,-4.541,-1.496
1772934802475.9019,0.0239,-0.5538,-0.8136,2.257,-4.331,-1.295
1772934802475.9019,0.0189,-0.5523,-0.8192,2.354,-4.541,-1.304
1772934802492.3076,0.024,-0.5539,-0.8192,2.38,-4.524,-1.295
1772934802492.3076,0.0195,-0.5533,-0.8175,2.494,-4.655,-1.269
1772934802492.3076,0.0192,-0.5557,-0.8211,2.336,-4.524,-1.514
1772934802492.3076,0.0212,-0.5555,-0.8169,2.31,-4.865,-1.426
1772934802492.3076,0.0209,-0.5572,-0.817,2.196,-4.629,-1.321
1772934802492.3076,0.0214,-0.5544,-0.8165,2.266,-4.524,-1.295
1772934802492.3076,0.0159,-0.5556,-0.8173,2.292,-4.673,-1.286
1772934802492.3076,0.0194,-0.554,-0.8195,2.319,-4.699,-1.435
1772934802492.3076,0.0201,-0.5549,-0.82,2.371,-4.821,-1.452
1772934802492.3076,0.0215,-0.5546,-0.8186,2.301,-4.69,-1.295
1772934802492.3076,0.0175,-0.558,-0.817,2.257,-4.777,-1.041
1772934802492.3076,0.0183,-0.5547,-0.8136,2.144,-4.629,-1.199
1772934802492.3076,0.0175,-0.5546,-0.8151,2.502,-4.76,-1.4
1772934802508.0408,0.0212,-0.5551,-0.8145,2.319,-5.005,-1.339
1772934802508.0408,0.0205,-0.5562,-0.8153,2.214,-4.751,-1.356
1772934802508.0408,0.02,-0.5563,-0.814,2.152,-4.629,-1.155
1772934802508.0408,0.0224,-0.5535,-0.8165,2.196,-4.848,-1.391
1772934802508.0408,0.0193,-0.5566,-0.8114,2.056,-4.786,-1.444
1772934802508.0408,0.0196,-0.5574,-0.8125,2.214,-4.856,-1.374
1772934802508.0408,0.0206,-0.5549,-0.8144,2.354,-4.83,-1.426
1772934802508.0408,0.0198,-0.5542,-0.8156,2.179,-4.909,-1.417
1772934802508.0408,0.0184,-0.5534,-0.8155,2.179,-4.821,-1.347
1772934802508.0408,0.02,-0.5526,-0.8169,2.039,-4.918,-1.251
1772934802508.0408,0.0193,-0.5519,-0.8149,2.205,-5.197,-1.339
1772934802508.0408,0.0199,-0.55,-0.817,2.161,-5.197,-1.26
1772934802508.0408,0.0217,-0.5476,-0.8158,2.301,-5.171,-1.173
1772934802524.1106,0.0207,-0.5483,-0.8139,2.257,-5.031,-1.251
1772934802524.1106,0.0232,-0.548,-0.8146,2.118,-4.891,-1.19
1772934802524.1106,0.0198,-0.5464,-0.8133,2.065,-4.909,-1.216
1772934802524.1106,0.0206,-0.5468,-0.8128,1.89,-5.022,-1.286
1772934802524.1106,0.0182,-0.5456,-0.8115,2.056,-5.197,-1.365
1772934802524.1106,0.0205,-0.5441,-0.8134,1.978,-4.83,-1.383
1772934802524.1106,0.0218,-0.5458,-0.812,1.89,-4.848,-1.417
1772934802524.1106,0.0218,-0.5456,-0.814,2.074,-4.83,-1.321
1772934802524.1106,0.0232,-0.5453,-0.8126,2.03,-4.979,-1.339
1772934802524.1106,0.0194,-0.5452,-0.8125,2.152,-4.944,-1.505
1772934802524.1106,0.0218,-0.544,-0.8101,2.257,-5.031,-1.75
1772934802524.1106,0.0237,-0.544,-0.8113,2.188,-4.952,-1.802
1772934802524.1106,0.0218,-0.5441,-0.8153,2.03,-4.979,-1.907
1772934802539.282,0.0234,-0.5478,-0.814,2.231,-5.022,-1.794
1772934802539.282,0.0218,-0.5439,-0.8154,2.205,-5.022,-1.715
1772934802539.282,0.0225,-0.542,-0.8152,2.284,-5.101,-1.732
1772934802539.282,0.0215,-0.5447,-0.8164,2.161,-4.804,-1.566
1772934802539.282,0.0188,-0.5439,-0.8164,2.301,-4.874,-1.584
1772934802539.282,0.0192,-0.545,-0.8155,2.336,-4.935,-1.54
1772934802539.282,0.0196,-0.5459,-0.8181,2.433,-4.655,-1.522
1772934802539.282,0.0201,-0.5468,-0.8188,2.328,-4.961,-1.531
1772934802539.282,0.0163,-0.5444,-0.8181,2.362,-4.804,-1.374
1772934802539.282,0.0211,-0.5459,-0.8184,2.389,-4.786,-1.558
1772934802539.282,0.0222,-0.546,-0.8184,2.196,-4.874,-1.339
1772934802539.282,0.0187,-0.5478,-0.8195,2.021,-4.751,-1.12
1772934802554.5078,0.0215,-0.5457,-0.8184,2.118,-5.145,-1.339
1772934802554.5078,0.0201,-0.5475,-0.8206,2.231,-4.795,-1.312
1772934802554.5078,0.0229,-0.5462,-0.8196,1.837,-4.856,-1.164
1772934802554.5078,0.0235,-0.5458,-0.818,1.96,-5.101,-1.365
1772934802554.5078,0.022,-0.5467,-0.8176,1.934,-5.224,-1.391
1772934802554.5078,0.0234,-0.5488,-0.82,1.907,-5.206,-1.409
1772934802554.5078,0.0218,-0.5502,-0.8176,1.864,-5.329,-1.601
1772934802554.5078,0.0231,-0.5491,-0.8165,1.759,-4.944,-1.269
1772934802554.5078,0.0244,-0.5522,-0.8192,1.802,-4.987,-1.278
1772934802554.5078,0.0232,-0.5513,-0.8189,1.531,-5.101,-1.304
1772934802554.5078,0.0206,-0.5527,-0.8177,1.47,-5.285,-1.365
1772934802554.5078,0.0228,-0.5508,-0.8204,1.47,-5.276,-1.12
1772934802570.187,0.0261,-0.5536,-0.8189,1.208,-5.346,-1.295
1772934802570.187,0.0248,-0.5511,-0.8154,1.391,-5.18,-1.391
1772934802570.187,0.0245,-0.552,-0.815,1.295,-5.259,-1.4
1772934802570.187,0.0233,-0.5498,-0.8165,1.216,-5.224,-1.374
1772934802570.187,0.0243,-0.5514,-0.8152,1.208,-5.066,-1.286
1772934802570.187,0.0227,-0.5525,-0.8139,1.12,-5.031,-1.321
1772934802570.187,0.026,-0.5547,-0.8131,1.103,-5.189,-1.094
1772934802570.187,0.0235,-0.5545,-0.8117,1.067,-5.154,-0.936
1772934802570.187,0.0237,-0.5532,-0.8094,1.076,-5.311,-1.155
1772934802570.187,0.0229,-0.552,-0.8111,1.208,-5.154,-1.103
1772934802570.187,0.0234,-0.5533,-0.8075,0.858,-4.952,-1.129
1772934802570.187,0.024,-0.5539,-0.8082,0.805,-4.996,-1.12
1772934802570.187,0.0245,-0.553,-0.8092,0.963,-4.961,-1.129
1772934802585.7927,0.0231,-0.5539,-0.8084,1.024,-5.031,-1.015
1772934802585.7927,0.0232,-0.5533,-0.8087,0.927,-4.795,-1.032
1772934802585.7927,0.0242,-0.5533,-0.8064,0.91,-4.769,-1.234
1772934802585.7927,0.0259,-0.5527,-0.8061,0.892,-4.742,-1.111
1772934802585.7927,0.0251,-0.5526,-0.8051,0.858,-4.646,-1.085
1772934802585.7927,0.0239,-0.5519,-0.8065,1.041,-4.603,-0.998
1772934802585.7927,0.0245,-0.5506,-0.8068,0.998,-4.55,-0.858
1772934802585.7927,0.0242,-0.5522,-0.8064,1.024,-4.585,-0.691
1772934802585.7927,0.0235,-0.549,-0.8073,1.129,-4.48,-0.805
1772934802585.7927,0.0245,-0.5512,-0.8054,1.347,-4.497,-0.945
1772934802585.7927,0.0252,-0.5509,-0.8053,1.33,-4.419,-0.787
1772934802585.7927,0.0246,-0.5526,-0.8065,1.496,-4.2,-0.866
1772934802585.7927,0.0236,-0.5499,-0.808,1.461,-4.121,-0.796
1772934802601.4163,0.0243,-0.5502,-0.8054,1.627,-4.147,-0.796
1772934802601.4163,0.0232,-0.5488,-0.8104,1.47,-3.78,-0.77
1772934802601.4163,0.024,-0.5485,-0.8125,1.549,-3.973,-0.998
1772934802601.4163,0.024,-0.5464,-0.8103,1.593,-3.85,-0.849
1772934802601.4163,0.022,-0.5447,-0.8101,1.671,-3.85,-0.718
1772934802601.4163,0.0209,-0.5455,-0.8139,1.663,-3.859,-0.674
1772934802601.4163,0.0216,-0.5439,-0.8159,1.785,-3.78,-0.779
1772934802601.4163,0.0228,-0.5394,-0.8163,1.855,-3.684,-0.919
1772934802601.4163,0.0214,-0.5405,-0.8163,1.698,-3.841,-1.12
1772934802601.4163,0.0215,-0.5378,-0.8172,1.907,-3.815,-0.954
1772934802601.4163,0.0204,-0.5358,-0.8223,2.152,-3.999,-1.129
1772934802601.4163,0.0198,-0.5344,-0.8223,1.969,-4.034,-1.278
1772934802617.0627,0.0198,-0.533,-0.8256,2.013,-4.139,-1.4
1772934802617.0627,0.0209,-0.534,-0.8245,2.188,-4.209,-1.461
1772934802617.0627,0.0159,-0.5356,-0.824,2.118,-4.34,-1.461
1772934802617.0627,0.022,-0.5322,-0.8247,2.345,-4.489,-1.514
1772934802617.0627,0.0224,-0.5347,-0.8277,2.1,-4.62,-1.391
1772934802617.0627,0.02,-0.5346,-0.8273,2.152,-4.926,-1.383
1772934802617.0627,0.022,-0.5367,-0.8284,2.118,-4.848,-1.558
1772934802617.0627,0.0203,-0.5352,-0.8265,1.986,-5.005,-1.689
1772934802617.0627,0.0204,-0.5386,-0.8255,1.846,-5.39,-1.82
1772934802617.0627,0.0199,-0.5397,-0.8272,1.689,-5.346,-1.671
1772934802617.0627,0.0204,-0.5385,-0.8257,1.794,-5.556,-1.811
1772934802617.0627,0.022,-0.5391,-0.8296,1.409,-5.548,-1.794
1772934802617.0627,0.0228,-0.5378,-0.8261,1.514,-5.994,-1.584
1772934802632.6133,0.0204,-0.5378,-0.8278,1.479,-6.072,-1.619
1772934802632.6133,0.0226,-0.5375,-0.8255,1.461,-6.055,-1.435
1772934802632.6133,0.0209,-0.5375,-0.8276,1.12,-6.125,-1.601
1772934802632.6133,0.0229,-0.5379,-0.8246,1.216,-5.95,-1.549
1772934802632.6133,0.0216,-0.5366,-0.8247,1.208,-5.652,-1.54
1772934802632.6133,0.0213,-0.5383,-0.8251,1.041,-5.959,-1.479
1772934802632.6133,0.0224,-0.5383,-0.8248,1.155,-6.16,-1.54
1772934802632.6133,0.0219,-0.5373,-0.824,1.094,-5.88,-1.654
1772934802632.6133,0.0204,-0.5377,-0.8223,1.383,-5.871,-1.61
1772934802632.6133,0.0203,-0.5401,-0.8251,1.269,-6.064,-1.505
1772934802632.6133,0.0226,-0.5403,-0.8206,1.286,-6.037,-1.566
1772934802632.6133,0.0239,-0.538,-0.8203,1.356,-6.02,-1.636
1772934802632.6133,0.0215,-0.5419,-0.8206,1.391,-5.924,-1.715
1772934802648.1643,0.0214,-0.541,-0.8194,1.426,-5.941,-1.627
1772934802648.1643,0.0228,-0.5402,-0.8201,1.601,-5.696,-1.785
1772934802648.1643,0.0239,-0.5418,-0.8182,1.593,-6.003,-1.837
1772934802648.1643,0.0245,-0.5437,-0.8212,1.636,-5.652,-1.575
1772934802648.1643,0.0217,-0.5432,-0.8201,1.61,-5.766,-1.575
1772934802648.1643,0.0234,-0.5427,-0.8208,1.663,-5.924,-1.54
1772934802648.1643,0.0229,-0.5429,-0.8205,1.776,-5.915,-1.488
1772934802648.1643,0.023,-0.5416,-0.8192,1.802,-5.784,-1.636
1772934802648.1643,0.0234,-0.5412,-0.8162,1.925,-5.758,-1.663
1772934802648.1643,0.0224,-0.5409,-0.8186,1.925,-5.617,-1.505
1772934802648.1643,0.0218,-0.543,-0.8181,1.802,-5.67,-1.619
1772934802648.1643,0.021,-0.5416,-0.8169,1.593,-5.854,-1.61
1772934802663.48,0.0231,-0.5429,-0.8174,1.864,-5.688,-1.383
1772934802663.48,0.0206,-0.5427,-0.8187,1.995,-5.617,-1.452
1772934802663.48,0.0217,-0.5459,-0.8156,2.249,-5.478,-1.391
1772934802663.48,0.0223,-0.5454,-0.8147,2.118,-5.513,-1.452
1772934802663.48,0.0243,-0.545,-0.8147,2.161,-5.714,-1.242
1772934802663.48,0.0256,-0.5453,-0.8154,2.257,-5.548,-1.26
1772934802663.48,0.0258,-0.5446,-0.81,2.144,-5.381,-1.216
1772934802663.48,0.0229,-0.5473,-0.8121,2.371,-5.434,-1.278
1772934802663.48,0.0229,-0.5476,-0.8151,2.301,-5.661,-1.216
1772934802663.48,0.0224,-0.5471,-0.8146,2.205,-5.329,-1.312
1772934802663.48,0.0231,-0.5488,-0.8154,2.31,-5.215,-1.286
1772934802663.48,0.0204,-0.5456,-0.8123,2.249,-5.075,-1.225
1772934802663.48,0.0203,-0.5456,-0.8149,2.424,-5.093,-1.216
1772934802679.3525,0.0234,-0.5453,-0.811,2.415,-5.022,-0.945
1772934802679.3525,0.0251,-0.5445,-0.8126,2.424,-5.338,-1.146
1772934802679.3525,0.0223,-0.5461,-0.8132,2.555,-4.952,-1.225
1772934802679.3525,0.0224,-0.5452,-0.8161,2.266,-4.821,-1.199
1772934802679.3525,0.0224,-0.5438,-0.8142,2.284,-4.734,-1.435
1772934802679.3525,0.021,-0.5441,-0.8157,2.389,-4.603,-1.225
1772934802679.3525,0.0219,-0.5409,-0.8148,2.467,-4.524,-1.173
1772934802679.3525,0.0223,-0.5413,-0.8162,2.476,-4.541,-1.347
1772934802679.3525,0.0239,-0.5416,-0.8152,2.467,-4.646,-1.356
1772934802679.3525,0.0229,-0.5409,-0.8149,2.38,-4.655,-1.584
1772934802679.3525,0.0232,-0.5425,-0.8183,2.59,-4.524,-1.356
1772934802679.3525,0.0252,-0.5422,-0.8187,2.599,-4.69,-1.558
1772934802679.3525,0.0263,-0.5427,-0.817,2.424,-4.594,-1.654
1772934802694.9695,0.0239,-0.5426,-0.8178,2.502,-4.497,-1.601
1772934802694.9695,0.0226,-0.5405,-0.8151,2.538,-4.848,-1.584
1772934802694.9695,0.0236,-0.5421,-0.8181,2.415,-4.856,-1.575
1772934802694.9695,0.0228,-0.5434,-0.8198,2.651,-4.83,-1.671
1772934802694.9695,0.0219,-0.5445,-0.8189,2.467,-4.874,-1.768
1772934802694.9695,0.0205,-0.5452,-0.8206,2.485,-4.856,-1.584
1772934802694.9695,0.0201,-0.5447,-0.8231,2.336,-4.699,-1.558
1772934802694.9695,0.0182,-0.543,-0.8179,2.45,-4.725,-1.549
1772934802694.9695,0.0209,-0.5448,-0.8183,2.38,-4.594,-1.181
