Time_ms,ax,ay,az,gx,gy,gz
1772976332136.856,-0.1333,0.0049,-0.9742,3.255,-5.338,-1.4
1772976332136.856,-0.1319,0.0054,-0.9711,3.159,-5.425,-1.61
1772976332136.856,-0.1326,0.0039,-0.9734,3.29,-5.241,-1.47
1772976332136.856,-0.1343,0.0021,-0.9754,3.176,-5.189,-1.47
1772976332136.856,-0.1346,0.0059,-0.973,3.089,-5.355,-1.383
1772976332136.856,-0.1335,0.0035,-0.9767,3.167,-5.46,-1.522
1772976332136.856,-0.1348,0.0038,-0.9751,3.281,-5.399,-1.417
1772976332136.856,-0.134,0.0033,-0.9737,3.29,-5.679,-1.4
1772976332136.856,-0.1337,0.0041,-0.9719,3.045,-5.311,-1.391
1772976332136.856,-0.1332,0.0026,-0.9744,3.089,-5.39,-1.549
1772976332136.856,-0.1344,0.0048,-0.9708,3.036,-5.451,-1.794
1772976332136.856,-0.1335,0.0024,-0.9737,3.054,-5.6,-1.715
1772976332136.856,-0.1332,0.0037,-0.9736,3.089,-5.635,-1.627
1772976332152.0667,-0.1332,0.0037,-0.9723,3.01,-5.539,-1.566
1772976332152.0667,-0.133,0.0037,-0.9766,3.045,-5.451,-1.452
1772976332152.0667,-0.1338,0.0054,-0.9737,2.879,-5.346,-1.435
1772976332152.0667,-0.1327,0.0038,-0.9729,2.966,-5.749,-1.54
1772976332152.0667,-0.137,0.0029,-0.9729,3.062,-5.819,-1.689
1772976332152.0667,-0.1332,0.0023,-0.9722,2.914,-5.442,-1.496
1772976332152.0667,-0.135,0.0018,-0.9727,3.036,-5.451,-1.251
1772976332152.0667,-0.1327,0.0039,-0.973,2.984,-5.775,-1.558
1772976332152.0667,-0.1354,0.0029,-0.9719,2.922,-5.434,-1.645
1772976332152.0667,-0.1348,0.0016,-0.9726,3.071,-5.478,-1.435
1772976332152.0667,-0.1343,0.0032,-0.9729,2.844,-5.486,-1.339
1772976332152.0667,-0.1348,0.0008,-0.972,2.765,-5.635,-1.488
1772976332167.0708,-0.1359,0.0013,-0.9704,2.669,-5.495,-1.173
1772976332167.0708,-0.1357,0.0024,-0.9709,2.712,-5.652,-1.4
1772976332167.0708,-0.1331,0.0041,-0.972,2.817,-5.486,-1.444
1772976332167.0708,-0.1352,0.0041,-0.9708,2.87,-5.39,-1.566
1772976332167.0708,-0.1334,0.0048,-0.9713,2.984,-5.495,-1.488
1772976332167.0708,-0.1331,0.0013,-0.9704,3.106,-5.644,-1.566
1772976332167.0708,-0.1335,0.0038,-0.9719,2.949,-5.74,-1.479
1772976332167.0708,-0.1352,0.0032,-0.9716,2.896,-5.556,-1.645
1772976332167.0708,-0.1355,0.0028,-0.9697,2.765,-5.268,-1.365
1772976332167.0708,-0.1357,0.0021,-0.9709,2.756,-5.364,-1.461
1772976332167.0708,-0.1327,0.0024,-0.97,2.879,-5.303,-1.505
1772976332167.0708,-0.1335,0.0022,-0.9708,3.01,-5.224,-1.636
1772976332182.7354,-0.1338,0.0024,-0.9696,2.931,-5.215,-1.522
1772976332182.7354,-0.1341,0.0046,-0.9698,3.019,-5.189,-1.461
1772976332182.7354,-0.1348,0.0023,-0.9691,3.071,-5.162,-1.505
1772976332182.7354,-0.1333,0.0017,-0.97,3.01,-4.909,-1.461
1772976332182.7354,-0.1349,0.0015,-0.9729,2.853,-5.136,-1.654
1772976332182.7354,-0.1357,0.0035,-0.9724,3.001,-5.058,-1.374
1772976332182.7354,-0.132,0.0019,-0.9717,2.958,-4.918,-1.584
1772976332182.7354,-0.1333,0.0017,-0.9697,2.888,-5.171,-1.339
1772976332182.7354,-0.1328,-0.0003,-0.9716,2.94,-4.83,-1.417
1772976332182.7354,-0.1337,0.0012,-0.9717,2.958,-4.926,-1.269
1772976332182.7354,-0.1336,-0.0004,-0.9717,3.036,-5.066,-1.356
1772976332182.7354,-0.134,0.0024,-0.9686,2.888,-5.04,-1.216
1772976332182.7354,-0.1316,0.0013,-0.9683,3.019,-5.022,-1.715
1772976332197.9246,-0.1329,-0.0004,-0.9715,2.914,-4.567,-1.409
1772976332197.9246,-0.133,0.0001,-0.971,3.115,-4.777,-1.383
1772976332197.9246,-0.1321,0.0009,-0.9741,3.019,-5.005,-1.514
1772976332197.9246,-0.1347,0.0026,-0.9745,2.966,-4.839,-1.732
1772976332197.9246,-0.1326,0.002,-0.9721,3.027,-4.769,-1.4
1772976332197.9246,-0.1327,-0.0001,-0.9715,2.993,-4.699,-1.208
1772976332197.9246,-0.1329,0.0007,-0.9715,3.229,-4.883,-1.452
1772976332197.9246,-0.1327,0.001,-0.9728,3.413,-4.996,-1.391
1772976332197.9246,-0.1346,0.0012,-0.9733,2.896,-4.926,-1.33
1772976332197.9246,-0.131,-0.0011,-0.9706,2.94,-4.909,-1.339
1772976332197.9246,-0.1319,0.0028,-0.9723,3.098,-4.804,-1.417
1772976332197.9246,-0.1327,0.001,-0.9714,2.993,-4.497,-1.33
1772976332197.9246,-0.1353,0.0014,-0.974,2.922,-4.848,-1.286
1772976332213.6484,-0.1333,0.0011,-0.9742,3.001,-5.154,-1.461
1772976332213.6484,-0.1309,-0.0007,-0.9726,3.159,-5.136,-1.286
1772976332213.6484,-0.1341,0.0015,-0.9724,2.861,-4.926,-1.304
1772976332213.6484,-0.1338,-0.0003,-0.9728,3.062,-4.944,-1.225
1772976332213.6484,-0.1327,0.0009,-0.9744,2.783,-5.084,-1.452
1772976332213.6484,-0.1338,-0.0002,-0.9709,2.634,-4.699,-1.461
1772976332213.6484,-0.1339,0.0016,-0.9714,2.958,-4.734,-1.488
1772976332213.6484,-0.1329,0.001,-0.9723,2.686,-4.769,-1.47
1772976332213.6484,-0.1338,0.0011,-0.9717,2.712,-5.084,-1.54
1772976332213.6484,-0.1343,0.003,-0.9719,2.783,-4.979,-1.549
1772976332213.6484,-0.1333,0.001,-0.9708,2.748,-4.944,-1.444
1772976332213.6484,-0.1352,0.002,-0.9737,2.966,-5.171,-1.514
1772976332229.3984,-0.1352,0.0009,-0.9728,2.607,-4.777,-1.356
1772976332229.3984,-0.1347,-0.0007,-0.9739,2.634,-4.69,-1.444
1772976332229.3984,-0.1321,0.0043,-0.9722,2.555,-4.681,-1.522
1772976332229.3984,-0.1323,-0.0007,-0.9758,2.52,-4.76,-1.417
1772976332229.3984,-0.1329,0.0004,-0.9737,2.433,-4.891,-1.584
1772976332229.3984,-0.1334,0.0021,-0.9751,2.485,-5.005,-1.365
1772976332229.3984,-0.1321,0.0,-0.9719,2.59,-4.996,-1.146
1772976332229.3984,-0.1321,0.0035,-0.9728,2.555,-5.031,-1.452
1772976332229.3984,-0.1356,0.0057,-0.974,2.389,-5.084,-1.435
1772976332229.3984,-0.134,0.0029,-0.9763,2.441,-5.189,-1.286
1772976332229.3984,-0.1305,0.0015,-0.9729,2.52,-5.18,-1.435
1772976332229.3984,-0.1314,0.0029,-0.9725,2.319,-5.162,-1.566
1772976332229.3984,-0.1335,0.003,-0.9725,2.397,-5.311,-1.488
1772976332244.8887,-0.1308,0.0026,-0.973,2.328,-5.232,-1.479
1772976332244.8887,-0.1329,0.0018,-0.972,2.336,-5.364,-1.461
1772976332244.8887,-0.1321,0.001,-0.9735,2.31,-5.224,-1.663
1772976332244.8887,-0.1321,0.0024,-0.976,2.476,-5.189,-1.496
1772976332244.8887,-0.1319,0.0036,-0.9742,2.179,-5.39,-1.636
1772976332244.8887,-0.1326,0.0044,-0.9767,2.45,-5.241,-1.549
1772976332244.8887,-0.1309,0.0041,-0.9747,2.214,-5.224,-1.496
1772976332244.8887,-0.1315,0.0026,-0.9732,2.406,-5.451,-1.671
1772976332244.8887,-0.1305,0.0024,-0.9722,2.31,-5.46,-1.514
1772976332244.8887,-0.133,0.0042,-0.9756,2.38,-5.504,-1.741
1772976332244.8887,-0.1308,0.0041,-0.9725,2.433,-5.311,-1.698
1772976332244.8887,-0.1319,0.0011,-0.9742,2.074,-5.329,-1.759
1772976332244.8887,-0.1318,0.0026,-0.9731,2.126,-5.504,-1.698
1772976332261.0125,-0.1322,0.0016,-0.9756,2.039,-5.714,-1.759
1772976332261.0125,-0.1321,0.0021,-0.9734,2.257,-5.854,-1.654
1772976332261.0125,-0.1317,0.0043,-0.9744,2.424,-5.723,-1.479
1772976332261.0125,-0.1332,0.0032,-0.9726,2.1,-5.906,-1.295
1772976332261.0125,-0.1329,0.0026,-0.971,2.284,-5.723,-1.479
1772976332261.0125,-0.1321,0.0026,-0.9713,2.135,-5.495,-1.374
1772976332261.0125,-0.1319,0.0027,-0.9692,2.118,-5.749,-1.54
1772976332261.0125,-0.1311,0.0022,-0.972,2.196,-6.003,-1.549
1772976332261.0125,-0.1304,0.0049,-0.9726,2.196,-5.845,-1.514
1772976332261.0125,-0.134,0.0018,-0.9697,2.056,-5.74,-1.636
1772976332261.0125,-0.1329,0.0023,-0.9698,2.231,-5.644,-1.601
1772976332261.0125,-0.1337,0.0038,-0.9695,2.126,-5.591,-1.531
1772976332261.0125,-0.1351,0.0001,-0.9696,1.978,-5.434,-1.593
1772976332276.8152,-0.1323,0.003,-0.9666,1.907,-5.434,-1.724
1772976332276.8152,-0.1355,0.004,-0.9664,1.654,-5.303,-1.715
1772976332276.8152,-0.1344,0.003,-0.9667,1.645,-5.215,-1.601
1772976332276.8152,-0.1343,0.0043,-0.968,1.444,-5.206,-1.47
1772976332276.8152,-0.1337,0.0024,-0.9648,1.619,-5.136,-1.435
1772976332276.8152,-0.1332,0.0034,-0.9645,1.54,-5.014,-1.575
1772976332276.8152,-0.1365,0.001,-0.9659,1.391,-5.014,-1.435
1772976332276.8152,-0.1354,0.0017,-0.9653,1.409,-4.865,-1.452
1772976332276.8152,-0.1355,0.004,-0.9675,1.435,-4.603,-1.426
1772976332276.8152,-0.136,0.0048,-0.9662,1.391,-4.357,-1.593
1772976332276.8152,-0.1347,0.0018,-0.9638,1.137,-4.226,-1.522
1772976332276.8152,-0.1357,0.0041,-0.9661,1.321,-4.165,-1.75
1772976332292.7708,-0.135,0.0044,-0.9655,1.111,-4.06,-1.505
1772976332292.7708,-0.1351,0.0019,-0.9654,1.242,-4.174,-1.435
1772976332292.7708,-0.1376,0.0029,-0.9656,1.269,-4.051,-1.566
1772976332292.7708,-0.1365,0.0015,-0.9646,1.409,-4.06,-1.584
1772976332292.7708,-0.1355,0.0027,-0.9667,1.365,-3.797,-1.593
1772976332292.7708,-0.1366,0.0042,-0.9689,1.584,-3.64,-1.601
1772976332292.7708,-0.1373,0.0049,-0.9667,1.558,-3.736,-1.479
1772976332292.7708,-0.1394,0.0053,-0.9687,1.505,-3.833,-1.391
1772976332292.7708,-0.1363,0.0029,-0.9702,1.444,-3.36,-1.383
1772976332292.7708,-0.1346,0.0028,-0.9729,1.505,-3.447,-1.601
1772976332292.7708,-0.1354,0.0034,-0.971,1.496,-3.386,-1.575
1772976332292.7708,-0.1342,0.0051,-0.9712,1.715,-3.561,-1.54
1772976332292.7708,-0.1337,0.0026,-0.9711,1.916,-3.229,-1.452
1772976332308.4858,-0.1326,0.0068,-0.9736,1.986,-3.203,-1.33
1772976332308.4858,-0.1355,0.0062,-0.9748,1.978,-3.272,-1.383
1772976332308.4858,-0.1357,0.0052,-0.9734,2.039,-3.509,-1.505
1772976332308.4858,-0.1325,0.0051,-0.975,2.039,-3.561,-1.522
1772976332308.4858,-0.1351,0.0051,-0.9742,2.047,-3.413,-1.671
1772976332308.4858,-0.1313,0.0062,-0.9765,2.292,-3.623,-1.444
1772976332308.4858,-0.1319,0.0056,-0.9797,2.494,-3.973,-1.593
1772976332308.4858,-0.1312,0.0078,-0.9787,2.529,-4.112,-1.531
1772976332308.4858,-0.131,0.0046,-0.9826,2.669,-3.885,-1.549
1772976332308.4858,-0.1305,0.0039,-0.9817,2.765,-4.112,-1.531
1772976332308.4858,-0.1329,0.0059,-0.9835,2.817,-4.218,-1.549
1772976332308.4858,-0.1308,0.006,-0.9826,2.765,-4.331,-1.522
1772976332308.4858,-0.1315,0.0051,-0.9813,2.879,-4.699,-1.479
1772976332323.7358,-0.131,0.0055,-0.983,2.975,-4.673,-1.61
1772976332323.7358,-0.1294,0.0058,-0.9825,3.15,-4.944,-1.601
1772976332323.7358,-0.1306,0.0056,-0.9832,2.949,-5.495,-1.706
1772976332323.7358,-0.1303,0.005,-0.9843,2.905,-5.574,-1.969
1772976332323.7358,-0.1318,0.0064,-0.983,3.019,-5.232,-1.68
1772976332323.7358,-0.1285,0.0058,-0.9833,2.853,-5.617,-1.802
1772976332323.7358,-0.1308,0.0051,-0.9833,2.87,-5.758,-1.855
1772976332323.7358,-0.129,0.0043,-0.9831,3.027,-6.055,-1.811
1772976332323.7358,-0.1301,0.0025,-0.9822,2.853,-5.994,-1.627
1772976332323.7358,-0.1307,0.0047,-0.9867,2.686,-6.125,-1.663
1772976332323.7358,-0.1318,0.0026,-0.9819,2.835,-6.344,-1.636
1772976332323.7358,-0.128,0.0047,-0.9819,2.73,-6.702,-1.855
1772976332323.7358,-0.1286,0.0027,-0.9806,2.8,-6.772,-2.091
1772976332339.5703,-0.1313,0.0051,-0.983,2.748,-6.834,-2.039
1772976332339.5703,-0.1299,0.004,-0.981,2.511,-6.624,-1.864
1772976332339.5703,-0.1285,0.0054,-0.978,2.616,-6.991,-1.75
1772976332339.5703,-0.1296,0.0025,-0.9777,2.433,-6.886,-2.021
1772976332339.5703,-0.1304,0.0048,-0.9775,2.371,-6.668,-1.907
1772976332339.5703,-0.1283,0.0052,-0.9778,2.424,-7.061,-1.776
1772976332339.5703,-0.1293,0.0052,-0.978,2.284,-7.122,-1.759
1772976332339.5703,-0.1288,0.0042,-0.9765,2.345,-7.053,-1.951
1772976332339.5703,-0.1284,0.0046,-0.9783,2.231,-6.79,-1.619
1772976332339.5703,-0.1296,0.0038,-0.975,1.68,-6.912,-1.75
1772976332339.5703,-0.1312,0.0042,-0.9733,1.627,-7.088,-1.759
1772976332339.5703,-0.1304,0.0052,-0.9715,1.776,-6.956,-1.706
1772976332354.9485,-0.1305,0.005,-0.9699,1.663,-6.746,-1.82
1772976332354.9485,-0.1294,0.0048,-0.9709,1.636,-6.816,-1.794
1772976332354.9485,-0.1314,0.0047,-0.9686,1.461,-6.379,-1.768
1772976332354.9485,-0.1337,0.006,-0.9664,1.636,-6.414,-2.065
1772976332354.9485,-0.1311,0.0037,-0.9696,1.479,-6.554,-2.047
1772976332354.9485,-0.1304,0.0052,-0.9662,1.312,-6.405,-1.925
1772976332354.9485,-0.1327,0.006,-0.9666,1.558,-6.274,-1.829
1772976332354.9485,-0.1315,0.0046,-0.9659,1.496,-6.274,-1.724
1772976332354.9485,-0.1313,0.0056,-0.965,1.409,-5.766,-1.645
1772976332354.9485,-0.129,0.0062,-0.9682,1.391,-5.81,-1.645
1772976332354.9485,-0.13,0.0037,-0.965,1.391,-5.723,-1.768
1772976332354.9485,-0.1313,0.0057,-0.9665,1.216,-5.478,-1.68
1772976332354.9485,-0.1327,0.003,-0.9656,1.269,-5.372,-1.558
1772976332370.6816,-0.1337,0.0038,-0.9656,1.19,-5.442,-1.496
1772976332370.6816,-0.134,0.0038,-0.964,1.234,-5.162,-1.601
1772976332370.6816,-0.1348,0.0033,-0.9658,1.426,-4.883,-1.706
1772976332370.6816,-0.1325,0.0034,-0.9662,1.549,-4.918,-1.47
1772976332370.6816,-0.1346,0.005,-0.9686,1.409,-5.119,-1.479
1772976332370.6816,-0.1325,0.0049,-0.9672,1.417,-4.673,-1.278
1772976332370.6816,-0.133,0.007,-0.9678,1.444,-4.742,-1.645
1772976332370.6816,-0.1346,0.0049,-0.9672,1.426,-4.865,-1.75
1772976332370.6816,-0.133,0.0037,-0.9678,1.409,-4.559,-1.549
1772976332370.6816,-0.1332,0.0036,-0.9699,1.654,-4.183,-1.593
1772976332370.6816,-0.1344,0.0042,-0.9714,1.794,-4.314,-1.208
1772976332370.6816,-0.1337,0.0032,-0.9719,1.907,-4.34,-1.383
1772976332370.6816,-0.1341,0.0035,-0.9737,2.1,-4.384,-1.26
1772976332386.653,-0.133,0.0039,-0.9757,2.179,-4.393,-1.374
1772976332386.653,-0.1345,0.0012,-0.9744,2.205,-4.541,-1.47
1772976332386.653,-0.1304,0.0048,-0.9755,2.004,-4.331,-1.286
1772976332386.653,-0.131,0.0045,-0.9767,2.205,-4.357,-1.103
1772976332386.653,-0.1332,0.0065,-0.9798,2.433,-4.463,-1.129
1772976332386.653,-0.1335,0.0054,-0.977,2.511,-4.401,-1.216
1772976332386.653,-0.1313,0.0052,-0.9769,2.389,-4.673,-1.488
1772976332386.653,-0.1307,0.0057,-0.9811,2.538,-5.101,-1.321
1772976332386.653,-0.1298,0.0037,-0.9832,2.704,-5.154,-1.155
1772976332386.653,-0.1307,0.0046,-0.9809,2.949,-5.189,-1.522
1772976332386.653,-0.1296,0.0045,-0.9808,2.861,-5.338,-1.365
1772976332386.653,-0.1312,0.0048,-0.9812,2.826,-5.154,-1.347
1772976332402.8438,-0.1312,0.0045,-0.9812,2.922,-5.329,-1.452
1772976332402.8438,-0.1301,0.0037,-0.9817,3.185,-5.723,-1.496
1772976332402.8438,-0.1306,0.0023,-0.9826,3.001,-5.897,-1.558
1772976332402.8438,-0.1301,0.0053,-0.9816,3.01,-5.871,-1.531
1772976332402.8438,-0.1283,0.0043,-0.9802,3.447,-6.107,-1.68
1772976332402.8438,-0.1308,0.0046,-0.9808,3.167,-6.16,-1.522
1772976332402.8438,-0.131,0.0047,-0.9802,3.334,-6.431,-1.426
1772976332402.8438,-0.1289,0.0026,-0.9793,3.456,-6.685,-1.558
1772976332402.8438,-0.1317,0.0021,-0.9803,3.325,-6.668,-1.488
1772976332402.8438,-0.1294,0.0009,-0.98,3.404,-6.676,-1.251
1772976332402.8438,-0.1338,0.0039,-0.978,3.229,-7.035,-1.269
1772976332402.8438,-0.1304,0.0033,-0.977,3.43,-6.939,-1.558
1772976332402.8438,-0.1294,-0.0002,-0.9762,3.316,-6.991,-1.522
1772976332402.8438,-0.1309,0.0029,-0.9753,3.246,-7.245,-1.531
1772976332418.6902,-0.1306,0.0024,-0.9738,3.167,-7.192,-1.321
1772976332418.6902,-0.1352,0.0023,-0.9751,3.071,-7.254,-1.26
1772976332418.6902,-0.1315,0.0024,-0.9739,3.098,-7.298,-1.496
1772976332418.6902,-0.1324,0.0018,-0.9703,3.019,-7.07,-1.461
1772976332418.6902,-0.1336,0.0025,-0.9704,2.993,-7.157,-1.505
1772976332418.6902,-0.1321,0.0029,-0.9683,2.888,-6.982,-1.636
1772976332418.6902,-0.1344,0.002,-0.9648,2.538,-6.825,-1.584
1772976332418.6902,-0.136,0.0044,-0.9671,2.695,-6.772,-1.54
1772976332418.6902,-0.1344,0.0036,-0.9634,2.66,-6.615,-1.391
1772976332418.6902,-0.1356,0.0063,-0.9667,2.625,-6.457,-1.417
1772976332418.6902,-0.1345,0.0053,-0.963,2.555,-6.247,-1.225
1772976332418.6902,-0.1335,0.0054,-0.9625,2.669,-6.213,-1.383
1772976332418.6902,-0.1347,0.004,-0.9643,2.555,-6.081,-1.417
1772976332434.6902,-0.1363,0.0066,-0.9612,2.59,-5.897,-1.33
1772976332434.6902,-0.1356,0.0066,-0.964,2.774,-5.591,-1.365
1772976332434.6902,-0.1347,0.0056,-0.9643,2.669,-5.232,-1.339
1772976332434.6902,-0.1348,0.0068,-0.9655,2.66,-5.329,-1.514
1772976332434.6902,-0.1355,0.0078,-0.9629,3.045,-5.224,-1.374
1772976332434.6902,-0.1366,0.0089,-0.9658,3.045,-5.154,-1.242
1772976332434.6902,-0.135,0.0098,-0.9637,3.062,-4.883,-1.286
1772976332434.6902,-0.1328,0.0092,-0.967,3.255,-4.55,-1.347
1772976332434.6902,-0.1338,0.0084,-0.9689,3.447,-4.567,-1.479
1772976332434.6902,-0.1322,0.0088,-0.97,3.526,-4.585,-1.593
1772976332434.6902,-0.1319,0.0084,-0.9694,3.771,-4.463,-1.19
1772976332434.6902,-0.1333,0.009,-0.9729,3.684,-4.366,-1.505
1772976332450.0032,-0.1336,0.0087,-0.9765,4.121,-4.445,-1.514
1772976332450.0032,-0.131,0.0085,-0.9794,4.226,-4.664,-1.671
1772976332450.0032,-0.1279,0.0062,-0.9805,4.384,-4.655,-1.54
1772976332450.0032,-0.129,0.0054,-0.9801,4.454,-4.419,-1.514
1772976332450.0032,-0.1293,0.0071,-0.9851,4.751,-4.707,-1.575
1772976332450.0032,-0.1277,0.0077,-0.9856,4.944,-5.189,-1.496
1772976332450.0032,-0.128,0.0088,-0.9866,4.996,-5.189,-1.47
1772976332450.0032,-0.1292,0.0054,-0.9871,5.162,-5.241,-1.347
1772976332450.0032,-0.1271,0.0055,-0.99,5.416,-5.67,-1.584
1772976332450.0032,-0.1263,0.0059,-0.989,5.696,-5.609,-1.619
1772976332450.0032,-0.1249,0.009,-0.9928,5.626,-6.046,-1.522
1772976332450.0032,-0.1277,0.0073,-0.9923,5.976,-6.519,-1.365
1772976332450.0032,-0.1258,0.0056,-0.9921,6.204,-6.562,-1.505
1772976332465.4805,-0.1262,0.0063,-0.9939,6.169,-6.781,-1.505
1772976332465.4805,-0.126,0.0053,-0.9926,6.23,-6.869,-1.452
1772976332465.4805,-0.1269,0.0057,-0.9917,5.906,-7.044,-1.26
1772976332465.4805,-0.126,0.0027,-0.993,6.23,-7.683,-1.383
1772976332465.4805,-0.1241,0.0048,-0.9927,6.256,-7.884,-1.47
1772976332465.4805,-0.125,0.0048,-0.9894,6.274,-8.181,-1.522
1772976332465.4805,-0.1263,0.0045,-0.9904,6.213,-8.453,-1.689
1772976332465.4805,-0.1238,0.0043,-0.9866,6.055,-8.496,-1.663
1772976332465.4805,-0.1231,0.0035,-0.9869,6.134,-8.619,-1.426
1772976332465.4805,-0.124,0.0038,-0.9826,6.02,-8.566,-1.435
1772976332465.4805,-0.1243,0.0027,-0.9851,5.845,-8.794,-1.575
1772976332465.4805,-0.1261,0.0049,-0.985,5.539,-9.1,-1.732
1772976332480.669,-0.1241,0.0028,-0.9783,5.696,-9.223,-1.837
1772976332480.669,-0.1238,0.0034,-0.9771,5.582,-9.161,-1.663
1772976332480.669,-0.1267,0.0042,-0.9785,5.294,-9.214,-1.295
1772976332480.669,-0.1248,0.0045,-0.9753,5.39,-9.144,-1.531
1772976332480.669,-0.1271,0.0026,-0.9769,5.399,-8.995,-1.514
1772976332480.669,-0.127,0.0047,-0.9761,5.311,-9.004,-1.61
1772976332480.669,-0.1279,0.0058,-0.9746,5.093,-8.969,-1.522
1772976332480.669,-0.1295,0.0052,-0.9717,5.022,-8.645,-1.505
1772976332480.669,-0.1302,0.0051,-0.9756,5.101,-8.523,-1.584
1772976332480.669,-0.1296,0.0048,-0.9744,5.241,-8.496,-1.663
1772976332480.669,-0.1309,0.0066,-0.974,5.084,-8.172,-1.584
1772976332480.669,-0.1306,0.008,-0.9732,4.751,-7.621,-1.575
1772976332480.669,-0.1311,0.0096,-0.9731,4.996,-7.63,-1.417
1772976332496.6777,-0.1326,0.0083,-0.9737,5.224,-7.201,-1.549
1772976332496.6777,-0.1347,0.0073,-0.9725,5.338,-6.939,-1.47
1772976332496.6777,-0.1332,0.0095,-0.9737,5.416,-6.545,-1.461
1772976332496.6777,-0.1338,0.0099,-0.9736,5.381,-6.326,-1.496
1772976332496.6777,-0.138,0.0101,-0.9731,5.836,-5.906,-1.61
1772976332496.6777,-0.1384,0.0121,-0.9745,6.143,-5.661,-1.514
1772976332496.6777,-0.1379,0.0125,-0.971,6.475,-5.224,-1.47
1772976332496.6777,-0.1383,0.0126,-0.9722,6.633,-4.725,-1.435
1772976332496.6777,-0.1412,0.0125,-0.9709,7.157,-4.209,-1.593
1772976332496.6777,-0.1424,0.0116,-0.9753,7.455,-3.658,-1.566
1772976332496.6777,-0.1462,0.0126,-0.9733,7.534,-3.22,-1.347
1772976332496.6777,-0.1457,0.0137,-0.969,8.295,-2.678,-1.365
1772976332496.6777,-0.145,0.0132,-0.9678,8.689,-1.951,-1.426
1772976332511.5293,-0.149,0.0146,-0.9703,8.995,-1.417,-1.173
1772976332511.5293,-0.1488,0.0146,-0.9672,9.502,-1.295,-1.199
1772976332511.5293,-0.1496,0.0157,-0.9636,10.185,-0.779,-1.347
1772976332511.5293,-0.1499,0.0158,-0.9631,10.693,-0.254,-1.199
1772976332511.5293,-0.1497,0.0142,-0.9651,11.06,0.271,-1.216
1772976332511.5293,-0.1511,0.0131,-0.9604,11.139,0.989,-1.164
1772976332511.5293,-0.1502,0.0128,-0.9607,11.489,1.383,-1.286
1772976332511.5293,-0.1489,0.0087,-0.9621,11.926,1.89,-1.173
1772976332511.5293,-0.1499,0.009,-0.9608,12.066,2.389,-1.015
1772976332511.5293,-0.1507,0.0102,-0.9594,12.285,2.975,-1.164
1772976332511.5293,-0.1494,0.0087,-0.9626,12.714,3.203,-1.286
1772976332511.5293,-0.1494,0.0077,-0.9576,12.644,3.605,-1.015
1772976332526.862,-0.1479,0.0026,-0.9609,12.714,4.034,-1.208
1772976332526.862,-0.1495,0.0014,-0.9577,12.889,4.393,-1.26
1772976332526.862,-0.1478,0.0015,-0.9592,12.582,4.673,-1.041
1772976332526.862,-0.1459,0.0009,-0.9583,12.617,4.883,-1.085
1772976332526.862,-0.1443,-0.0009,-0.9577,12.67,5.128,-1.164
1772976332526.862,-0.1442,-0.0036,-0.9579,12.574,5.084,-0.989
1772976332526.862,-0.1426,-0.0046,-0.9599,12.215,5.232,-1.059
1772976332526.862,-0.1435,-0.0052,-0.9592,11.839,5.442,-0.866
1772976332526.862,-0.1438,-0.0057,-0.9598,11.454,5.425,-0.919
1772976332526.862,-0.1408,-0.0084,-0.9586,10.99,5.346,-0.831
1772976332526.862,-0.1397,-0.0101,-0.9598,10.553,5.022,-0.858
1772976332526.862,-0.1413,-0.0094,-0.959,10.229,5.119,-0.621
1772976332542.017,-0.1394,-0.0116,-0.9583,9.739,5.022,-0.709
1772976332542.017,-0.1378,-0.0126,-0.9611,8.846,4.681,-0.665
1772976332542.017,-0.1344,-0.0118,-0.9595,8.251,4.673,-0.691
1772976332542.017,-0.1328,-0.0123,-0.9618,7.621,4.253,-0.665
1772976332542.017,-0.134,-0.013,-0.9614,6.781,4.043,-0.569
1772976332542.017,-0.1323,-0.0148,-0.9629,6.186,3.561,-0.578
1772976332542.017,-0.1321,-0.0138,-0.9625,5.504,3.316,-0.858
1772976332542.017,-0.1324,-0.0148,-0.964,4.55,2.765,-0.805
1772976332542.017,-0.1296,-0.0147,-0.9614,3.824,2.354,-0.805
1772976332542.017,-0.1304,-0.0139,-0.9645,3.281,1.68,-0.726
1772976332542.017,-0.129,-0.015,-0.9628,2.572,1.295,-0.901
1772976332542.017,-0.129,-0.0124,-0.9653,1.663,1.146,-1.006
1772976332542.017,-0.1263,-0.0137,-0.967,1.225,0.333,-0.849
1772976332557.4001,-0.1261,-0.0157,-0.9669,0.595,-0.087,-1.173
1772976332557.4001,-0.1286,-0.0131,-0.9672,-0.201,-0.455,-1.032
1772976332557.4001,-0.1263,-0.0118,-0.9696,-0.499,-0.796,-1.059
1772976332557.4001,-0.1267,-0.0132,-0.9662,-1.164,-1.522,-1.216
1772976332557.4001,-0.1241,-0.0108,-0.9699,-1.698,-2.109,-1.356
1772976332557.4001,-0.126,-0.0105,-0.9719,-2.257,-2.564,-1.19
1772976332557.4001,-0.1259,-0.0106,-0.9692,-2.362,-2.966,-1.216
1772976332557.4001,-0.1243,-0.0082,-0.9704,-2.783,-3.395,-1.295
1772976332557.4001,-0.1234,-0.0077,-0.9705,-3.098,-3.955,-1.426
1772976332557.4001,-0.1263,-0.0088,-0.9708,-3.474,-4.296,-1.426
1772976332557.4001,-0.1232,-0.0082,-0.9711,-3.561,-4.874,-1.391
1772976332557.4001,-0.1239,-0.0074,-0.9717,-3.745,-5.364,-1.417
1772976332572.941,-0.1261,-0.0053,-0.9731,-3.938,-5.714,-1.549
1772976332572.941,-0.123,-0.0036,-0.9733,-4.069,-6.003,-1.724
1772976332572.941,-0.1246,-0.0038,-0.9739,-3.938,-6.405,-1.496
1772976332572.941,-0.1238,-0.0028,-0.9764,-3.85,-6.361,-1.365
1772976332572.941,-0.1258,-0.0025,-0.9721,-3.666,-6.947,-1.549
1772976332572.941,-0.1224,-0.0017,-0.9733,-3.439,-7.053,-1.706
1772976332572.941,-0.1247,-0.003,-0.9739,-3.439,-7.201,-1.619
1772976332572.941,-0.1242,-0.0014,-0.9719,-3.482,-7.569,-1.759
1772976332572.941,-0.1242,-0.0021,-0.9725,-2.949,-7.674,-1.899
1772976332572.941,-0.1233,0.0,-0.9725,-2.756,-7.831,-1.925
1772976332572.941,-0.124,-0.0007,-0.9723,-2.625,-7.779,-1.715
1772976332572.941,-0.122,-0.0001,-0.974,-2.424,-7.735,-1.873
1772976332588.8127,-0.1215,-0.0004,-0.9718,-2.196,-7.508,-1.811
1772976332588.8127,-0.1243,-0.0003,-0.9716,-1.995,-7.647,-1.715
1772976332588.8127,-0.1213,-0.0018,-0.9714,-1.802,-7.63,-2.004
1772976332588.8127,-0.1251,-0.0013,-0.97,-1.461,-7.612,-1.96
1772976332588.8127,-0.1229,-0.0015,-0.9692,-1.085,-7.665,-1.96
1772976332588.8127,-0.1215,-0.0027,-0.9711,-0.656,-7.376,-1.846
1772976332588.8127,-0.122,-0.001,-0.9721,-0.376,-7.289,-1.89
1772976332588.8127,-0.1238,-0.0045,-0.9701,-0.438,-6.965,-1.89
1772976332588.8127,-0.1236,-0.0015,-0.9698,0.087,-7.0,-2.013
1772976332588.8127,-0.1236,-0.0043,-0.9725,0.096,-6.93,-1.89
1772976332588.8127,-0.1238,-0.0032,-0.9695,0.42,-6.808,-2.083
1772976332588.8127,-0.1238,-0.0029,-0.9715,0.385,-6.388,-1.907
1772976332588.8127,-0.1221,-0.0048,-0.9704,0.604,-6.213,-2.021
1772976332603.6738,-0.1218,-0.0045,-0.9699,0.691,-6.09,-1.907
1772976332603.6738,-0.1224,-0.0049,-0.9735,0.499,-5.574,-1.916
1772976332603.6738,-0.122,-0.0049,-0.9754,0.744,-5.67,-1.907
1772976332603.6738,-0.1222,-0.003,-0.9737,0.805,-5.294,-1.873
1772976332603.6738,-0.1202,-0.0048,-0.9762,0.875,-5.066,-1.969
1772976332603.6738,-0.1231,-0.0043,-0.9745,0.989,-4.839,-1.627
1772976332603.6738,-0.1206,-0.002,-0.9742,0.945,-5.005,-1.82
1772976332603.6738,-0.1222,-0.0055,-0.9776,0.7,-4.9,-1.68
1772976332603.6738,-0.1204,-0.0036,-0.9762,0.971,-4.567,-1.75
1772976332603.6738,-0.1196,-0.0027,-0.9794,0.998,-4.41,-1.575
1772976332603.6738,-0.1185,-0.0034,-0.9799,0.884,-4.428,-1.671
1772976332603.6738,-0.119,-0.0021,-0.9792,0.936,-4.244,-1.645
1772976332618.7188,-0.1172,-0.0021,-0.9794,0.787,-4.261,-1.522
1772976332618.7188,-0.1163,-0.0005,-0.9826,0.551,-4.436,-1.558
1772976332618.7188,-0.1188,-0.0002,-0.9828,0.472,-4.305,-1.47
1772976332618.7188,-0.1161,0.001,-0.9823,0.578,-4.506,-1.75
1772976332618.7188,-0.119,0.0004,-0.9814,0.499,-4.707,-1.732
1772976332618.7188,-0.1166,0.002,-0.9806,0.324,-4.883,-1.732
1772976332618.7188,-0.1166,0.0005,-0.9813,0.114,-4.699,-1.505
1772976332618.7188,-0.119,0.0048,-0.9848,0.324,-4.777,-1.426
1772976332618.7188,-0.1177,0.0026,-0.9825,0.385,-4.918,-1.698
1772976332618.7188,-0.1186,0.0051,-0.9819,0.14,-5.075,-1.26
1772976332618.7188,-0.1199,0.004,-0.987,0.158,-5.049,-1.479
1772976332618.7188,-0.116,0.0054,-0.9838,-0.105,-4.987,-1.514
1772976332618.7188,-0.1196,0.006,-0.9844,-0.201,-5.46,-1.47
1772976332634.7427,-0.1169,0.0056,-0.9838,-0.087,-5.539,-1.549
1772976332634.7427,-0.1171,0.0062,-0.9834,0.009,-5.801,-1.759
1772976332634.7427,-0.1181,0.0072,-0.9813,-0.14,-6.029,-1.391
1772976332634.7427,-0.119,0.0076,-0.9843,-0.122,-6.116,-1.663
1772976332634.7427,-0.1208,0.0085,-0.985,-0.193,-6.072,-1.724
1772976332634.7427,-0.1197,0.0103,-0.9835,-0.079,-6.274,-1.732
1772976332634.7427,-0.1209,0.0116,-0.982,-0.009,-6.598,-1.627
1772976332634.7427,-0.1202,0.0123,-0.9805,0.0,-6.755,-1.522
1772976332634.7427,-0.1247,0.0093,-0.9833,-0.009,-7.009,-1.61
1772976332634.7427,-0.12,0.0106,-0.9825,-0.131,-7.192,-1.54
1772976332634.7427,-0.1204,0.011,-0.9825,0.079,-7.376,-1.514
1772976332634.7427,-0.1213,0.0128,-0.9814,0.052,-7.586,-1.601
1772976332634.7427,-0.1244,0.0117,-0.9781,0.289,-7.446,-1.663
1772976332650.4558,-0.1229,0.0121,-0.9776,0.315,-7.718,-1.444
1772976332650.4558,-0.1235,0.0131,-0.9801,0.464,-8.059,-1.435
1772976332650.4558,-0.1235,0.012,-0.9778,0.403,-7.963,-1.391
1772976332650.4558,-0.1229,0.0136,-0.9762,0.682,-8.251,-1.522
1772976332650.4558,-0.1247,0.011,-0.9797,0.884,-8.172,-1.426
1772976332650.4558,-0.1253,0.0125,-0.9775,0.989,-8.242,-1.654
1772976332650.4558,-0.1247,0.0109,-0.977,1.015,-8.444,-1.768
1772976332650.4558,-0.1253,0.012,-0.9776,1.164,-8.724,-1.837
1772976332650.4558,-0.1265,0.0109,-0.9756,1.111,-8.505,-1.855
1772976332650.4558,-0.1275,0.0127,-0.9754,1.208,-8.374,-1.636
1772976332650.4558,-0.1276,0.0134,-0.9774,1.391,-8.636,-1.802
1772976332650.4558,-0.1281,0.0129,-0.9771,1.802,-8.943,-1.558
1772976332666.556,-0.129,0.0124,-0.9762,1.907,-8.689,-1.671
1772976332666.556,-0.1276,0.0109,-0.9736,1.627,-8.724,-1.496
1772976332666.556,-0.1285,0.0111,-0.9766,1.811,-8.645,-1.461
1772976332666.556,-0.1274,0.0097,-0.9758,1.925,-8.339,-1.61
1772976332666.556,-0.129,0.0118,-0.9731,2.257,-8.33,-1.549
1772976332666.556,-0.1323,0.0103,-0.9746,1.978,-8.575,-1.558
1772976332666.556,-0.1282,0.0101,-0.9746,2.083,-8.453,-1.715
1772976332666.556,-0.129,0.0066,-0.9751,2.397,-8.584,-1.391
1772976332666.556,-0.1299,0.0109,-0.9749,2.336,-8.164,-1.479
1772976332666.556,-0.1316,0.0082,-0.9761,2.572,-7.971,-1.461
1772976332666.556,-0.1323,0.0087,-0.9751,2.45,-8.234,-1.409
1772976332666.556,-0.1296,0.0073,-0.9729,2.748,-8.277,-1.505
1772976332666.556,-0.1307,0.0085,-0.9734,2.756,-8.199,-1.54
1772976332681.9956,-0.1305,0.0062,-0.9753,2.765,-7.936,-1.479
1772976332681.9956,-0.1316,0.0083,-0.9731,2.853,-7.779,-1.452
1772976332681.9956,-0.1286,0.0083,-0.975,3.027,-7.612,-1.514
1772976332681.9956,-0.1292,0.009,-0.9729,3.019,-7.604,-1.47
1772976332681.9956,-0.1306,0.0059,-0.9748,2.879,-7.691,-1.531
1772976332681.9956,-0.1297,0.006,-0.9726,2.905,-7.192,-1.549
1772976332681.9956,-0.1315,0.0077,-0.9709,2.888,-7.228,-1.391
1772976332681.9956,-0.131,0.006,-0.9716,2.756,-7.061,-1.505
1772976332681.9956,-0.1286,0.0061,-0.9699,2.879,-7.079,-1.4
1772976332681.9956,-0.1305,0.0039,-0.9726,2.879,-6.93,-1.391
1772976332681.9956,-0.1301,0.0048,-0.9693,3.115,-7.061,-1.514
1772976332681.9956,-0.1351,0.0053,-0.9711,2.905,-6.772,-1.365
1772976332681.9956,-0.1305,0.0049,-0.9708,3.071,-6.414,-1.321
1772976332697.8762,-0.1307,0.0048,-0.97,2.922,-6.309,-1.374
1772976332697.8762,-0.131,0.0008,-0.9686,2.765,-6.414,-1.505
1772976332697.8762,-0.1313,0.0019,-0.9701,2.861,-6.125,-1.496
1772976332697.8762,-0.1322,0.001,-0.9703,2.721,-6.16,-1.522
1772976332697.8762,-0.1347,0.0029,-0.9689,2.861,-5.976,-1.671
1772976332697.8762,-0.1331,0.0027,-0.9683,3.089,-5.897,-1.706
1772976332697.8762,-0.1312,0.0044,-0.9687,2.739,-5.845,-1.689
1772976332697.8762,-0.1322,0.0034,-0.968,2.73,-5.968,-1.61
1772976332697.8762,-0.1327,0.0013,-0.9684,2.783,-5.793,-1.505
1772976332697.8762,-0.134,0.0027,-0.9684,2.581,-5.67,-1.558
1772976332697.8762,-0.134,0.0013,-0.9683,2.529,-5.425,-1.654
1772976332697.8762,-0.1331,0.0012,-0.9645,2.695,-5.451,-1.627
1772976332697.8762,-0.1341,0.0021,-0.9671,2.651,-5.451,-1.575
1772976332713.627,-0.1343,0.0016,-0.9695,2.616,-5.381,-1.619
1772976332713.627,-0.1346,0.0009,-0.9653,2.564,-5.022,-1.47
1772976332713.627,-0.1335,0.001,-0.9668,2.467,-4.944,-1.785
1772976332713.627,-0.1329,0.001,-0.9675,2.45,-4.935,-1.47
1772976332713.627,-0.1333,-0.0003,-0.9647,2.538,-4.839,-1.558
1772976332713.627,-0.133,-0.0013,-0.9671,2.511,-4.918,-1.645
1772976332713.627,-0.1352,0.0021,-0.9681,2.669,-4.681,-1.925
1772976332713.627,-0.134,0.0005,-0.9632,2.467,-5.093,-1.61
1772976332713.627,-0.1376,0.0007,-0.9645,2.319,-5.031,-1.706
1772976332713.627,-0.1324,0.0012,-0.9649,2.24,-4.812,-1.794
1772976332713.627,-0.1308,0.0022,-0.9653,2.415,-4.734,-1.365
1772976332713.627,-0.1329,0.0024,-0.9658,2.292,-4.804,-1.531
1772976332728.773,-0.1343,0.002,-0.9692,2.406,-4.673,-1.654
1772976332728.773,-0.134,0.0004,-0.966,2.1,-4.83,-1.741
1772976332728.773,-0.1324,0.0027,-0.9667,2.301,-4.83,-1.54
1772976332728.773,-0.1322,0.0015,-0.9678,2.599,-4.804,-1.627
1772976332728.773,-0.1326,0.0015,-0.9663,2.31,-4.611,-1.619
1772976332728.773,-0.1338,0.0013,-0.9659,2.013,-4.428,-1.724
1772976332728.773,-0.1344,0.0022,-0.9683,1.969,-4.366,-1.768
1772976332728.773,-0.1327,0.0008,-0.9651,2.03,-4.48,-1.68
1772976332728.773,-0.1344,0.0012,-0.9654,1.907,-4.471,-1.636
1772976332728.773,-0.1323,0.0018,-0.9693,2.056,-4.664,-1.689
1772976332728.773,-0.1322,0.0022,-0.9673,1.978,-4.734,-1.47
1772976332728.773,-0.1314,0.0038,-0.9687,1.995,-5.005,-1.496
1772976332728.773,-0.1329,0.0031,-0.9679,2.091,-4.83,-1.663
1772976332743.979,-0.1315,0.0021,-0.967,2.065,-4.742,-1.776
1772976332743.979,-0.1332,0.003,-0.9723,2.074,-4.638,-1.627
1772976332743.979,-0.1327,0.0017,-0.9682,2.013,-4.883,-1.645
1772976332743.979,-0.1312,0.0009,-0.9703,1.846,-4.961,-1.829
1772976332743.979,-0.1321,0.0053,-0.9697,1.846,-4.76,-1.768
1772976332743.979,-0.1318,0.0027,-0.9708,1.75,-4.874,-1.82
1772976332743.979,-0.1316,0.003,-0.9697,1.785,-4.979,-1.636
1772976332743.979,-0.1315,0.0016,-0.9689,1.794,-4.883,-1.479
1772976332743.979,-0.1311,0.0014,-0.9691,1.496,-4.769,-1.549
1772976332743.979,-0.131,0.0024,-0.969,1.566,-4.918,-1.522
1772976332743.979,-0.1319,0.0048,-0.9692,1.776,-5.093,-1.768
1772976332743.979,-0.1315,0.0057,-0.9698,1.566,-5.442,-1.864
1772976332759.7244,-0.1313,0.0037,-0.9704,1.479,-5.338,-1.741
1772976332759.7244,-0.1333,0.0048,-0.9711,1.566,-5.303,-1.715
1772976332759.7244,-0.1321,0.0056,-0.9723,1.426,-5.303,-1.732
1772976332759.7244,-0.132,0.0071,-0.9703,1.514,-5.521,-1.724
1772976332759.7244,-0.1309,0.0068,-0.9734,1.295,-5.372,-1.68
1772976332759.7244,-0.1321,0.0065,-0.9723,1.452,-5.574,-1.671
1772976332759.7244,-0.1311,0.0076,-0.9718,1.312,-5.582,-1.68
1772976332759.7244,-0.1322,0.0059,-0.9708,1.479,-5.486,-1.689
1772976332759.7244,-0.1293,0.0036,-0.972,1.409,-5.626,-1.732
1772976332759.7244,-0.1312,0.006,-0.9742,1.531,-5.88,-1.785
1772976332759.7244,-0.1316,0.0059,-0.9731,1.522,-5.915,-1.566
1772976332759.7244,-0.1307,0.0048,-0.9751,1.531,-6.037,-1.82
1772976332759.7244,-0.1321,0.0061,-0.9739,1.304,-6.011,-1.855
1772976332775.8298,-0.131,0.0048,-0.974,1.654,-6.116,-1.837
1772976332775.8298,-0.1287,0.007,-0.9767,1.663,-6.186,-2.126
1772976332775.8298,-0.1285,0.0048,-0.9725,1.627,-6.265,-1.794
1772976332775.8298,-0.1291,0.004,-0.9751,1.619,-6.501,-1.811
1772976332775.8298,-0.1303,0.004,-0.9786,1.619,-6.501,-1.724
1772976332775.8298,-0.1294,0.0049,-0.9768,1.645,-6.536,-1.593
1772976332775.8298,-0.1263,0.0071,-0.9784,1.785,-6.668,-2.039
1772976332775.8298,-0.1261,0.0062,-0.9774,1.522,-6.851,-1.811
1772976332775.8298,-0.129,0.0079,-0.9776,1.47,-6.615,-1.732
1772976332775.8298,-0.1279,0.0071,-0.9766,1.47,-6.475,-1.715
1772976332775.8298,-0.1269,0.0063,-0.9799,1.601,-6.912,-1.995
1772976332775.8298,-0.1276,0.0063,-0.9784,1.601,-7.263,-1.706
1772976332775.8298,-0.126,0.0062,-0.9809,1.339,-7.298,-1.794
1772976332791.3235,-0.1268,0.0062,-0.9807,1.356,-7.254,-1.75
1772976332791.3235,-0.1257,0.0079,-0.9789,1.111,-7.201,-1.558
1772976332791.3235,-0.1263,0.0068,-0.9812,1.173,-7.577,-1.593
1772976332791.3235,-0.1267,0.0062,-0.981,1.181,-7.647,-1.811
1772976332791.3235,-0.1235,0.0052,-0.9821,1.067,-7.971,-1.829
1772976332791.3235,-0.1258,0.0068,-0.9836,1.12,-7.753,-1.741
1772976332791.3235,-0.1265,0.006,-0.9816,1.015,-7.735,-1.741
1772976332791.3235,-0.1276,0.0083,-0.9801,0.998,-7.971,-1.776
1772976332791.3235,-0.1264,0.0085,-0.9821,1.234,-8.155,-1.715
1772976332791.3235,-0.1263,0.0077,-0.9825,1.356,-8.155,-1.68
1772976332791.3235,-0.1252,0.0081,-0.9806,1.33,-7.971,-1.663
1772976332791.3235,-0.1278,0.0076,-0.9845,1.321,-8.102,-1.741
1772976332791.3235,-0.1277,0.0074,-0.9836,1.216,-8.216,-1.794
1772976332807.4436,-0.125,0.0076,-0.9822,1.383,-8.076,-1.689
1772976332807.4436,-0.1261,0.0076,-0.9799,1.522,-8.05,-1.881
1772976332807.4436,-0.1255,0.0086,-0.9814,1.409,-8.207,-1.636
1772976332807.4436,-0.1296,0.0087,-0.9792,1.584,-8.076,-1.776
1772976332807.4436,-0.127,0.0098,-0.9779,1.689,-8.277,-1.593
1772976332807.4436,-0.1272,0.0106,-0.9781,1.759,-7.928,-1.479
1772976332807.4436,-0.1265,0.0107,-0.9776,1.986,-7.936,-1.54
1772976332807.4436,-0.1303,0.0095,-0.974,2.021,-7.901,-1.627
1772976332807.4436,-0.1307,0.011,-0.974,1.837,-7.753,-1.575
1772976332807.4436,-0.1296,0.0089,-0.9747,2.109,-7.551,-1.645
1772976332807.4436,-0.1297,0.0095,-0.9767,2.179,-7.499,-1.522
1772976332807.4436,-0.129,0.0088,-0.9742,2.406,-7.394,-1.75
1772976332807.4436,-0.1331,0.0114,-0.9711,2.424,-6.947,-1.584
1772976332823.1682,-0.1347,0.0113,-0.9753,2.301,-6.851,-1.514
1772976332823.1682,-0.1319,0.0118,-0.9739,2.494,-6.781,-1.706
1772976332823.1682,-0.1297,0.0102,-0.9731,2.756,-6.379,-1.409
1772976332823.1682,-0.1318,0.0089,-0.97,2.686,-6.388,-1.531
1772976332823.1682,-0.1317,0.009,-0.9725,2.783,-6.361,-1.715
1772976332823.1682,-0.1327,0.0093,-0.9712,2.853,-6.151,-1.461
1772976332823.1682,-0.1349,0.007,-0.9705,2.739,-5.591,-1.208
1772976332823.1682,-0.1329,0.0077,-0.9713,2.984,-5.652,-1.452
1772976332823.1682,-0.1297,0.0083,-0.9709,3.342,-5.565,-1.488
1772976332823.1682,-0.1322,0.0095,-0.9686,3.456,-5.372,-1.575
1772976332823.1682,-0.1326,0.0074,-0.9708,3.561,-5.268,-1.435
1772976332823.1682,-0.1312,0.0072,-0.9699,3.29,-4.812,-1.339
1772976332838.797,-0.1335,0.0082,-0.9706,3.386,-5.285,-1.566
1772976332838.797,-0.1304,0.0067,-0.9726,3.43,-5.058,-1.365
1772976332838.797,-0.1301,0.006,-0.9719,3.439,-4.777,-1.365
1772976332838.797,-0.1319,0.0043,-0.9704,3.631,-4.471,-1.452
1772976332838.797,-0.1315,0.006,-0.9684,3.404,-4.585,-1.137
1772976332838.797,-0.1285,0.006,-0.9725,3.544,-4.769,-1.26
1772976332838.797,-0.1302,0.0059,-0.9723,3.509,-4.638,-1.339
1772976332838.797,-0.131,0.0065,-0.9702,3.176,-4.349,-1.076
1772976332838.797,-0.1302,0.0056,-0.9711,3.237,-4.436,-1.181
1772976332838.797,-0.1312,0.0077,-0.9714,3.43,-4.287,-1.295
1772976332838.797,-0.1297,0.0076,-0.9716,3.062,-4.27,-1.19
1772976332838.797,-0.129,0.0057,-0.9738,3.29,-4.314,-1.426
1772976332838.797,-0.1281,0.0054,-0.9739,3.115,-4.305,-1.304
1772976332854.2397,-0.1308,0.0073,-0.9703,3.185,-4.541,-1.505
1772976332854.2397,-0.1292,0.0073,-0.9725,3.15,-4.235,-1.312
1772976332854.2397,-0.1282,0.006,-0.9714,2.949,-4.393,-1.111
1772976332854.2397,-0.1288,0.0057,-0.9712,2.984,-4.349,-1.549
1772976332854.2397,-0.129,0.007,-0.9733,2.914,-4.62,-1.479
1772976332854.2397,-0.1271,0.0063,-0.9742,2.879,-4.848,-1.286
1772976332854.2397,-0.1279,0.0065,-0.9736,2.949,-4.944,-1.496
1772976332854.2397,-0.1297,0.0065,-0.9723,2.835,-4.996,-1.278
1772976332854.2397,-0.1279,0.0068,-0.9708,2.756,-5.058,-1.286
1772976332854.2397,-0.1305,0.0066,-0.9725,2.73,-5.11,-1.295
1772976332854.2397,-0.1291,0.0054,-0.9736,2.634,-4.9,-1.356
1772976332854.2397,-0.1291,0.0051,-0.9711,2.826,-5.119,-1.417
1772976332854.2397,-0.1301,0.0077,-0.9706,2.686,-5.399,-1.339
1772976332869.9026,-0.1295,0.0068,-0.9736,2.66,-5.399,-1.26
1772976332869.9026,-0.1294,0.004,-0.9712,2.634,-5.556,-1.488
1772976332869.9026,-0.1297,0.0065,-0.971,2.581,-5.766,-1.593
1772976332869.9026,-0.1282,0.0051,-0.9745,2.686,-5.915,-1.391
1772976332869.9026,-0.1308,0.0055,-0.9712,2.66,-5.968,-1.461
1772976332869.9026,-0.1291,0.0057,-0.9722,2.66,-6.046,-1.304
1772976332869.9026,-0.1291,0.0045,-0.9732,2.599,-6.09,-1.374
1772976332869.9026,-0.1288,0.0068,-0.9723,2.599,-6.256,-1.4
1772976332869.9026,-0.1279,0.0096,-0.9711,2.686,-6.282,-1.549
1772976332869.9026,-0.1286,0.0076,-0.9716,2.922,-6.562,-1.488
1772976332869.9026,-0.1301,0.0071,-0.9722,2.835,-6.344,-1.452
1772976332869.9026,-0.1302,0.0057,-0.9734,2.922,-6.545,-1.689
1772976332885.5208,-0.1282,0.0076,-0.9722,2.94,-6.633,-1.584
1772976332885.5208,-0.1288,0.0062,-0.973,2.966,-6.816,-1.549
1772976332885.5208,-0.1274,0.0052,-0.9729,2.835,-6.457,-1.435
1772976332885.5208,-0.1285,0.0073,-0.9731,3.159,-6.702,-1.435
1772976332885.5208,-0.1296,0.006,-0.971,3.132,-6.878,-1.566
1772976332885.5208,-0.1299,0.0063,-0.972,3.395,-6.816,-1.374
1772976332885.5208,-0.1298,0.004,-0.9719,3.377,-7.026,-1.365
1772976332885.5208,-0.1276,0.0057,-0.9734,3.404,-7.088,-1.514
1772976332885.5208,-0.1277,0.0045,-0.9717,3.526,-6.93,-1.601
1772976332885.5208,-0.1266,0.0049,-0.972,3.5,-7.044,-1.706
1772976332885.5208,-0.1282,0.0041,-0.9725,3.649,-6.895,-1.61
1772976332885.5208,-0.1286,0.0058,-0.9722,3.833,-6.921,-1.488
1772976332885.5208,-0.131,0.004,-0.973,3.902,-7.07,-1.802
1772976332900.6047,-0.129,0.0027,-0.9734,3.745,-7.14,-1.706
1772976332900.6047,-0.1294,0.0041,-0.9721,4.147,-7.044,-1.593
1772976332900.6047,-0.1315,0.0041,-0.9734,3.955,-7.157,-1.61
1772976332900.6047,-0.1285,0.0041,-0.9745,3.894,-7.201,-1.584
1772976332900.6047,-0.1293,0.0037,-0.9721,3.946,-7.192,-1.575
1772976332900.6047,-0.1293,0.0027,-0.9727,4.287,-7.236,-1.846
1772976332900.6047,-0.1286,0.0065,-0.9733,4.051,-7.122,-1.829
1772976332900.6047,-0.1283,0.004,-0.9717,4.287,-6.851,-1.706
1772976332900.6047,-0.1291,0.002,-0.9715,4.016,-6.825,-1.864
1772976332900.6047,-0.1298,0.0032,-0.9734,3.946,-6.711,-1.899
1772976332900.6047,-0.1303,0.0037,-0.9714,3.902,-6.641,-1.426
1772976332900.6047,-0.1292,0.0032,-0.9753,3.929,-6.668,-1.593
1772976332916.2688,-0.1293,0.0018,-0.9714,3.797,-6.685,-1.4
1772976332916.2688,-0.1309,0.0041,-0.9712,3.99,-6.457,-1.409
1772976332916.2688,-0.1318,0.0028,-0.9732,4.086,-6.589,-1.426
1772976332916.2688,-0.13,0.0032,-0.9719,3.973,-6.755,-1.488
1772976332916.2688,-0.1298,0.0016,-0.9691,3.99,-6.694,-1.82
1772976332916.2688,-0.1319,0.0011,-0.9732,4.016,-6.519,-1.671
1772976332916.2688,-0.1294,0.0035,-0.9714,3.885,-6.562,-1.82
1772976332916.2688,-0.1285,0.0034,-0.9707,3.981,-6.265,-1.627
1772976332916.2688,-0.1291,0.0045,-0.9703,4.121,-6.51,-1.461
1772976332916.2688,-0.1297,0.0035,-0.9716,3.728,-6.291,-1.575
1772976332916.2688,-0.131,0.0035,-0.9734,3.684,-5.941,-1.934
1772976332916.2688,-0.1302,0.0048,-0.9704,3.316,-6.099,-1.54
1772976332916.2688,-0.128,0.0057,-0.9734,3.334,-6.116,-1.593
1772976332931.8457,-0.1302,0.0073,-0.9699,3.43,-5.897,-1.68
1772976332931.8457,-0.1296,0.0048,-0.9721,3.395,-5.889,-1.558
1772976332931.8457,-0.1305,0.0049,-0.9711,3.456,-5.889,-1.4
1772976332931.8457,-0.1308,0.0067,-0.9737,3.281,-5.924,-1.452
1772976332931.8457,-0.1283,0.0052,-0.9731,3.001,-5.574,-1.636
1772976332931.8457,-0.1288,0.0042,-0.9721,3.185,-5.862,-1.444
1772976332931.8457,-0.1299,0.005,-0.9716,3.071,-5.827,-1.619
1772976332931.8457,-0.1297,0.0062,-0.9731,3.062,-5.862,-1.488
1772976332931.8457,-0.13,0.005,-0.9702,2.949,-5.793,-1.435
1772976332931.8457,-0.1286,0.0077,-0.9742,3.027,-5.959,-1.417
1772976332931.8457,-0.13,0.0066,-0.9706,2.853,-5.775,-1.54
1772976332931.8457,-0.1277,0.0085,-0.9715,3.001,-5.705,-1.663
1772976332947.1543,-0.1281,0.0093,-0.972,2.8,-5.793,-1.627
1772976332947.1543,-0.1302,0.007,-0.9737,2.669,-5.705,-1.479
1772976332947.1543,-0.1284,0.0094,-0.9723,2.712,-5.854,-1.698
1772976332947.1543,-0.1277,0.0099,-0.9749,2.546,-5.705,-1.663
1772976332947.1543,-0.1297,0.0103,-0.977,2.634,-5.705,-1.54
1772976332947.1543,-0.1299,0.0088,-0.9739,2.502,-5.941,-1.619
1772976332947.1543,-0.1293,0.0105,-0.9709,2.774,-6.029,-1.724
1772976332947.1543,-0.1305,0.0092,-0.9756,2.748,-5.705,-1.671
1772976332947.1543,-0.1303,0.0101,-0.9757,2.678,-5.95,-1.663
1772976332947.1543,-0.1313,0.0095,-0.9761,2.555,-5.976,-1.593
1772976332947.1543,-0.1305,0.0102,-0.9734,2.599,-6.072,-1.689
1772976332947.1543,-0.1297,0.0095,-0.9744,2.712,-6.011,-1.496
1772976332947.1543,-0.1322,0.0093,-0.9748,2.59,-6.116,-1.531
1772976332962.5967,-0.1296,0.0107,-0.9746,2.695,-6.064,-1.601
1772976332962.5967,-0.1307,0.0122,-0.974,2.502,-6.107,-1.741
1772976332962.5967,-0.1297,0.0123,-0.975,2.634,-6.213,-1.645
1772976332962.5967,-0.1299,0.0076,-0.9744,2.704,-6.221,-1.514
1772976332962.5967,-0.1304,0.0091,-0.9735,2.765,-6.221,-1.479
1772976332962.5967,-0.1307,0.0112,-0.9748,2.756,-6.291,-1.356
1772976332962.5967,-0.1308,0.0107,-0.9736,2.835,-6.099,-1.715
1772976332962.5967,-0.1307,0.0135,-0.9725,2.844,-6.335,-1.461
1772976332962.5967,-0.13,0.0091,-0.9755,2.686,-6.379,-1.514
1772976332962.5967,-0.131,0.0115,-0.9745,2.607,-6.344,-1.584
1772976332962.5967,-0.1322,0.0077,-0.9744,2.634,-6.265,-1.522
1772976332962.5967,-0.1323,0.0102,-0.9743,2.695,-6.326,-1.514
1772976332977.7805,-0.1301,0.0114,-0.976,2.853,-6.291,-1.636
1772976332977.7805,-0.1316,0.0115,-0.9756,2.616,-6.02,-1.374
1772976332977.7805,-0.1329,0.0092,-0.9714,2.87,-6.011,-1.584
1772976332977.7805,-0.1323,0.0092,-0.974,2.984,-6.274,-1.601
1772976332977.7805,-0.131,0.0117,-0.9748,2.888,-6.326,-1.619
1772976332977.7805,-0.1316,0.0092,-0.9754,2.844,-6.554,-1.732
1772976332977.7805,-0.1312,0.013,-0.9743,2.861,-6.282,-1.522
1772976332977.7805,-0.1307,0.0094,-0.975,2.634,-6.335,-1.627
1772976332977.7805,-0.1313,0.0103,-0.9761,2.721,-6.037,-1.339
1772976332977.7805,-0.1312,0.0094,-0.9736,2.896,-6.423,-1.435
1772976332977.7805,-0.1313,0.0085,-0.9765,2.774,-5.95,-1.452
1772976332977.7805,-0.1341,0.011,-0.9719,2.704,-6.064,-1.347
1772976332977.7805,-0.1321,0.0099,-0.9715,3.167,-6.16,-1.409
1772976332993.8381,-0.133,0.0092,-0.9736,3.071,-6.072,-1.391
1772976332993.8381,-0.1311,0.0102,-0.9739,2.817,-5.845,-1.347
1772976332993.8381,-0.131,0.0084,-0.9739,2.783,-6.02,-1.575
1772976332993.8381,-0.1326,0.0094,-0.9725,2.748,-6.169,-1.636
1772976332993.8381,-0.1311,0.0093,-0.9731,2.844,-6.011,-1.435
1772976332993.8381,-0.1334,0.0085,-0.9711,2.861,-6.134,-1.295
1772976332993.8381,-0.1318,0.0088,-0.9734,2.896,-6.414,-1.164
1772976332993.8381,-0.1329,0.0088,-0.9722,3.211,-6.326,-1.426
1772976332993.8381,-0.1313,0.0077,-0.9721,3.132,-5.985,-1.129
1772976332993.8381,-0.1316,0.0084,-0.9742,2.984,-6.072,-1.47
1772976332993.8381,-0.1337,0.0099,-0.9709,3.027,-5.827,-1.059
1772976332993.8381,-0.1322,0.0085,-0.9722,2.896,-5.74,-1.251
1772976332993.8381,-0.1326,0.0087,-0.9729,3.132,-5.731,-1.514
1772976333009.4045,-0.1339,0.0102,-0.9711,2.94,-5.959,-1.619
1772976333009.4045,-0.1329,0.01,-0.9723,3.089,-5.897,-1.391
1772976333009.4045,-0.135,0.0082,-0.9715,2.984,-5.696,-1.383
1772976333009.4045,-0.135,0.0073,-0.9747,3.167,-5.635,-1.452
1772976333009.4045,-0.132,0.0103,-0.9741,3.246,-5.924,-1.601
1772976333009.4045,-0.1338,0.0082,-0.9729,3.089,-5.688,-1.365
1772976333009.4045,-0.1307,0.0081,-0.9725,3.229,-5.723,-1.61
1772976333009.4045,-0.1331,0.0077,-0.973,3.124,-5.924,-1.26
1772976333009.4045,-0.1305,0.0085,-0.9754,2.949,-5.959,-1.26
1772976333009.4045,-0.1335,0.0077,-0.9747,3.019,-5.582,-1.461
1772976333009.4045,-0.1344,0.0072,-0.9753,3.229,-5.679,-1.505
1772976333009.4045,-0.1334,0.0059,-0.9725,3.141,-5.758,-1.321
1772976333024.6091,-0.1338,0.0053,-0.9724,3.036,-5.827,-1.566
1772976333024.6091,-0.1337,0.008,-0.9734,2.993,-5.696,-1.505
1772976333024.6091,-0.133,0.0046,-0.9747,3.08,-5.696,-1.409
1772976333024.6091,-0.1346,0.0052,-0.9729,3.264,-5.775,-1.4
1772976333024.6091,-0.1325,0.0072,-0.9728,3.089,-5.897,-1.47
1772976333024.6091,-0.1321,0.0059,-0.9723,2.958,-5.766,-1.488
1772976333024.6091,-0.1338,0.0057,-0.971,3.062,-5.749,-1.426
1772976333024.6091,-0.1341,0.0059,-0.9745,3.054,-5.679,-1.488
1772976333024.6091,-0.1335,0.0045,-0.9752,2.765,-5.889,-1.514
1772976333024.6091,-0.1341,0.0037,-0.9706,2.739,-5.827,-1.593
1772976333024.6091,-0.1342,0.0023,-0.972,2.87,-5.6,-1.47
1772976333024.6091,-0.1329,0.0036,-0.9734,2.8,-5.6,-1.488
1772976333024.6091,-0.1342,0.0044,-0.9695,3.071,-5.74,-1.627
1772976333039.7458,-0.1326,0.0033,-0.9686,2.826,-5.705,-1.584
1772976333039.7458,-0.133,0.004,-0.971,2.765,-6.011,-1.54
1772976333039.7458,-0.1323,0.0025,-0.9715,2.643,-6.029,-1.47
1772976333039.7458,-0.1336,0.0043,-0.9684,2.607,-5.915,-1.601
1772976333039.7458,-0.1314,0.0071,-0.9683,2.433,-5.985,-1.531
1772976333039.7458,-0.1335,0.0024,-0.9688,2.476,-5.827,-1.531
1772976333039.7458,-0.1305,0.0035,-0.9701,2.494,-5.766,-1.558
1772976333039.7458,-0.1332,0.0062,-0.969,2.336,-5.617,-1.391
1772976333039.7458,-0.1326,0.0027,-0.9698,2.319,-5.548,-1.698
1772976333039.7458,-0.1327,0.004,-0.9706,2.275,-5.644,-1.645
1772976333039.7458,-0.1307,0.0032,-0.9683,2.415,-5.635,-1.593
1772976333039.7458,-0.1305,0.0027,-0.9699,2.354,-5.591,-1.741
1772976333055.4023,-0.1318,0.0058,-0.9695,2.319,-5.854,-1.619
1772976333055.4023,-0.1336,0.0065,-0.9667,2.292,-5.679,-1.505
1772976333055.4023,-0.1319,0.0046,-0.9691,2.126,-5.635,-1.575
1772976333055.4023,-0.1312,0.0045,-0.9687,2.17,-5.758,-1.391
1772976333055.4023,-0.1321,0.0044,-0.9681,1.942,-5.696,-1.435
1772976333055.4023,-0.1296,0.0031,-0.9704,1.881,-5.39,-1.706
1772976333055.4023,-0.1316,0.0046,-0.9678,1.671,-5.425,-1.654
1772976333055.4023,-0.1319,0.0057,-0.9672,1.925,-5.548,-1.645
1772976333055.4023,-0.1322,0.0061,-0.9669,2.056,-5.46,-1.61
1772976333055.4023,-0.1312,0.0038,-0.9687,1.811,-5.6,-1.627
1772976333055.4023,-0.131,0.0052,-0.9691,1.627,-5.548,-1.636
1772976333055.4023,-0.1305,0.0029,-0.9683,1.627,-5.469,-1.426
1772976333055.4023,-0.1314,0.0032,-0.9672,1.846,-5.469,-1.601
1772976333070.7651,-0.1319,0.0056,-0.9661,1.645,-5.285,-1.549
1772976333070.7651,-0.1311,0.0035,-0.9679,1.715,-5.434,-1.47
1772976333070.7651,-0.1321,0.0064,-0.9678,1.663,-5.355,-1.514
1772976333070.7651,-0.1318,0.0068,-0.9683,1.636,-5.539,-1.601
1772976333070.7651,-0.1304,0.0048,-0.9676,1.356,-5.241,-1.584
1772976333070.7651,-0.1291,0.0059,-0.9658,1.067,-5.303,-1.654
1772976333070.7651,-0.1316,0.0057,-0.9671,1.242,-5.407,-1.531
1772976333070.7651,-0.1301,0.0054,-0.9695,1.356,-5.189,-1.601
1772976333070.7651,-0.1295,0.003,-0.9693,1.032,-5.442,-1.575
1772976333070.7651,-0.1302,0.0052,-0.9679,1.251,-5.268,-1.68
1772976333070.7651,-0.1313,0.0073,-0.9695,1.024,-5.294,-1.645
1772976333070.7651,-0.1307,0.0057,-0.9678,1.208,-5.329,-1.715
1772976333086.8384,-0.1297,0.006,-0.9688,1.312,-5.355,-1.426
1772976333086.8384,-0.1299,0.0063,-0.9678,1.251,-5.303,-1.732
1772976333086.8384,-0.1299,0.0074,-0.9694,1.006,-5.626,-1.627
1772976333086.8384,-0.1307,0.0066,-0.9689,1.173,-5.6,-1.461
1772976333086.8384,-0.1322,0.0071,-0.971,1.146,-5.372,-1.584
1772976333086.8384,-0.1302,0.0069,-0.9698,1.173,-5.469,-1.601
1772976333086.8384,-0.1289,0.0026,-0.9687,1.234,-5.504,-1.619
1772976333086.8384,-0.1303,0.0047,-0.9704,1.076,-5.591,-1.698
1772976333086.8384,-0.1283,0.0064,-0.9697,1.059,-5.889,-1.811
1772976333086.8384,-0.1315,0.0065,-0.972,1.199,-5.661,-1.514
1772976333086.8384,-0.1333,0.0079,-0.9697,1.164,-5.53,-1.522
1772976333086.8384,-0.1308,0.0093,-0.9702,1.242,-5.714,-1.566
1772976333086.8384,-0.1326,0.0074,-0.9723,1.015,-5.74,-1.514
1772976333102.766,-0.131,0.0067,-0.9707,0.998,-5.959,-1.452
1772976333102.766,-0.1326,0.0059,-0.9723,1.015,-5.889,-1.663
1772976333102.766,-0.1332,0.006,-0.9738,0.927,-5.635,-1.549
1772976333102.766,-0.1333,0.0057,-0.9721,1.006,-5.897,-1.47
1772976333102.766,-0.1316,0.0079,-0.9723,1.05,-5.784,-1.417
1772976333102.766,-0.1319,0.0062,-0.9711,0.998,-5.889,-1.426
1772976333102.766,-0.131,0.0074,-0.9706,0.779,-5.67,-1.356
1772976333102.766,-0.1316,0.0065,-0.9731,1.006,-5.696,-1.645
1772976333102.766,-0.133,0.005,-0.9714,1.111,-6.23,-1.566
1772976333102.766,-0.1312,0.0067,-0.9705,0.91,-6.134,-1.601
1772976333102.766,-0.1297,0.0079,-0.9704,1.032,-6.178,-1.549
1772976333102.766,-0.1327,0.009,-0.9738,1.032,-6.072,-1.75
1772976333102.766,-0.1315,0.0092,-0.9719,1.059,-5.994,-1.689
1772976333118.3013,-0.1338,0.007,-0.9728,1.103,-5.95,-1.522
1772976333118.3013,-0.1326,0.0085,-0.9729,1.173,-5.801,-1.715
1772976333118.3013,-0.1306,0.0077,-0.9712,0.98,-5.758,-1.759
1772976333118.3013,-0.13,0.0075,-0.9717,1.111,-6.239,-1.68
1772976333118.3013,-0.1349,0.0082,-0.9731,1.094,-6.204,-1.566
1772976333118.3013,-0.1326,0.0085,-0.9717,1.032,-6.09,-1.347
1772976333118.3013,-0.1312,0.0074,-0.9734,1.225,-5.994,-1.488
1772976333118.3013,-0.1332,0.0082,-0.9721,1.321,-6.37,-1.636
1772976333118.3013,-0.1312,0.0079,-0.9719,1.269,-6.405,-1.619
1772976333118.3013,-0.1325,0.0092,-0.9712,1.356,-6.326,-1.732
1772976333118.3013,-0.1326,0.0075,-0.973,1.496,-6.143,-1.663
1772976333118.3013,-0.1316,0.0057,-0.9733,1.444,-5.836,-1.846
1772976333133.9087,-0.1317,0.0093,-0.9736,1.479,-5.95,-1.689
1772976333133.9087,-0.134,0.0095,-0.9708,1.391,-5.845,-1.549
1772976333133.9087,-0.1315,0.0093,-0.9725,1.601,-6.178,-1.566
1772976333133.9087,-0.1342,0.0107,-0.9723,1.82,-6.247,-1.514
1772976333133.9087,-0.134,0.0119,-0.9733,1.785,-6.151,-1.426
1772976333133.9087,-0.1335,0.0099,-0.974,1.768,-6.379,-1.522
1772976333133.9087,-0.1341,0.0124,-0.9739,1.785,-6.633,-1.627
1772976333133.9087,-0.1329,0.0113,-0.9736,1.881,-6.195,-1.505
1772976333133.9087,-0.1329,0.011,-0.9741,1.75,-6.046,-1.505
1772976333133.9087,-0.133,0.0109,-0.9745,1.995,-6.195,-1.627
1772976333133.9087,-0.1334,0.0109,-0.9731,1.907,-6.125,-1.479
1772976333133.9087,-0.1325,0.0104,-0.9728,1.881,-6.116,-1.522
1772976333133.9087,-0.1313,0.009,-0.9739,1.75,-6.204,-1.505
1772976333149.058,-0.1298,0.0115,-0.9751,1.881,-6.046,-1.522
1772976333149.058,-0.1335,0.0115,-0.9744,1.986,-6.274,-1.54
1772976333149.058,-0.1335,0.0097,-0.9752,1.986,-6.029,-1.881
1772976333149.058,-0.1331,0.0112,-0.9761,1.916,-6.029,-1.759
1772976333149.058,-0.1319,0.0087,-0.9739,1.794,-5.941,-1.566
1772976333149.058,-0.133,0.0102,-0.9717,1.986,-6.046,-1.514
1772976333149.058,-0.1321,0.0113,-0.9782,2.109,-6.213,-1.689
1772976333149.058,-0.1312,0.0099,-0.9758,2.083,-6.178,-1.715
1772976333149.058,-0.1334,0.0084,-0.9758,2.021,-6.195,-1.724
1772976333149.058,-0.1313,0.0111,-0.975,2.214,-5.933,-1.549
1772976333149.058,-0.1325,0.0075,-0.9767,2.013,-6.011,-1.47
1772976333149.058,-0.1326,0.0098,-0.9765,2.205,-6.186,-1.575
1772976333164.3628,-0.1308,0.0118,-0.9747,2.152,-6.116,-1.715
1772976333164.3628,-0.1312,0.009,-0.975,1.916,-6.151,-1.558
1772976333164.3628,-0.1324,0.0092,-0.9758,2.083,-6.37,-1.864
1772976333164.3628,-0.1308,0.0107,-0.9769,2.135,-6.169,-1.89
1772976333164.3628,-0.1309,0.0112,-0.9775,1.96,-6.081,-1.645
1772976333164.3628,-0.1317,0.0105,-0.9737,2.091,-5.985,-1.61
1772976333164.3628,-0.1312,0.0096,-0.9741,2.17,-6.247,-1.689
1772976333164.3628,-0.1311,0.0099,-0.975,2.135,-6.037,-1.593
1772976333164.3628,-0.1307,0.0112,-0.9785,2.144,-6.265,-1.435
1772976333164.3628,-0.1327,0.0095,-0.9746,2.118,-5.845,-1.496
1772976333164.3628,-0.1294,0.0099,-0.975,2.179,-5.985,-1.601
1772976333164.3628,-0.13,0.0088,-0.974,2.047,-6.029,-1.627
1772976333164.3628,-0.1302,0.0102,-0.976,2.179,-6.09,-1.347
1772976333179.6038,-0.1286,0.0076,-0.9753,2.161,-6.125,-1.54
1772976333179.6038,-0.1294,0.0095,-0.978,2.1,-6.116,-1.645
1772976333179.6038,-0.1311,0.0108,-0.9758,2.188,-6.116,-1.496
1772976333179.6038,-0.1312,0.0119,-0.9748,2.021,-6.116,-1.522
1772976333179.6038,-0.1289,0.0101,-0.9765,1.802,-6.099,-1.444
1772976333179.6038,-0.1307,0.0101,-0.9729,1.802,-6.09,-1.4
1772976333179.6038,-0.1324,0.0112,-0.9732,1.873,-6.134,-1.164
1772976333179.6038,-0.1327,0.0109,-0.9772,1.995,-5.906,-1.488
1772976333179.6038,-0.1297,0.0115,-0.9747,2.03,-6.143,-1.698
1772976333179.6038,-0.1324,0.0096,-0.974,2.118,-6.247,-1.54
1772976333179.6038,-0.1281,0.0086,-0.9742,2.144,-5.933,-1.505
1772976333179.6038,-0.1295,0.0121,-0.974,2.047,-6.02,-1.593
1772976333195.2576,-0.1315,0.0088,-0.9731,1.969,-6.169,-1.619
1772976333195.2576,-0.1306,0.0098,-0.9738,2.135,-6.282,-1.435
1772976333195.2576,-0.1323,0.0093,-0.975,2.03,-6.344,-1.645
1772976333195.2576,-0.1327,0.0098,-0.974,1.645,-6.107,-1.584
1772976333195.2576,-0.1312,0.0094,-0.9734,1.785,-6.256,-1.584
1772976333195.2576,-0.1326,0.0119,-0.9721,1.811,-6.125,-1.61
1772976333195.2576,-0.1315,0.0107,-0.9756,1.969,-6.247,-1.68
1772976333195.2576,-0.1313,0.011,-0.9756,1.978,-6.029,-1.698
1772976333195.2576,-0.1315,0.0115,-0.9745,1.925,-6.151,-1.61
1772976333195.2576,-0.1335,0.0079,-0.9754,1.942,-6.3,-1.575
1772976333195.2576,-0.1308,0.0111,-0.9736,1.829,-6.003,-1.61
1772976333195.2576,-0.1299,0.0118,-0.9728,2.161,-6.029,-1.461
1772976333195.2576,-0.1291,0.0104,-0.9728,2.065,-6.326,-1.54
1772976333210.357,-0.1305,0.0119,-0.9728,1.925,-6.186,-1.522
1772976333210.357,-0.1301,0.0094,-0.9717,1.925,-5.976,-1.601
1772976333210.357,-0.1306,0.01,-0.9721,2.109,-6.143,-1.488
1772976333210.357,-0.1316,0.0106,-0.9733,2.354,-6.335,-1.426
1772976333210.357,-0.1299,0.0137,-0.9731,2.249,-6.072,-1.601
1772976333210.357,-0.1345,0.0132,-0.9717,2.039,-6.186,-1.68
1772976333210.357,-0.1327,0.012,-0.9731,2.039,-5.968,-1.636
1772976333210.357,-0.1334,0.0128,-0.9723,2.03,-5.959,-1.776
1772976333210.357,-0.1327,0.0125,-0.9722,2.083,-6.134,-1.741
1772976333210.357,-0.1309,0.0128,-0.9717,1.995,-6.213,-1.698
1772976333210.357,-0.1327,0.0125,-0.972,2.03,-5.845,-1.855
1772976333210.357,-0.1307,0.014,-0.9719,2.118,-6.011,-1.864
1772976333225.5977,-0.1293,0.0132,-0.9715,2.319,-5.924,-1.837
1772976333225.5977,-0.1318,0.0138,-0.9723,2.284,-5.95,-1.759
1772976333225.5977,-0.1301,0.0132,-0.9712,2.118,-6.099,-1.461
1772976333225.5977,-0.1323,0.0142,-0.9721,2.284,-6.02,-1.426
1772976333225.5977,-0.1323,0.0126,-0.9711,2.319,-5.968,-1.479
1772976333225.5977,-0.1336,0.0126,-0.9728,2.336,-5.88,-1.461
1772976333225.5977,-0.1325,0.0145,-0.9728,2.292,-5.941,-1.452
1772976333225.5977,-0.1326,0.0138,-0.972,2.284,-5.652,-1.706
1772976333225.5977,-0.1319,0.0152,-0.9714,2.266,-5.889,-1.724
1772976333225.5977,-0.1321,0.0118,-0.9697,2.371,-6.072,-1.671
1772976333225.5977,-0.1313,0.0124,-0.9723,2.301,-6.151,-1.619
1772976333225.5977,-0.134,0.012,-0.9732,2.284,-6.143,-1.768
1772976333225.5977,-0.1309,0.0121,-0.9726,2.328,-5.941,-1.75
1772976333241.5842,-0.1318,0.0146,-0.9743,2.249,-5.74,-1.514
1772976333241.5842,-0.1333,0.0144,-0.9725,2.38,-5.766,-1.645
1772976333241.5842,-0.1321,0.0115,-0.9711,2.257,-5.67,-1.461
1772976333241.5842,-0.134,0.0121,-0.9724,2.415,-6.09,-1.505
1772976333241.5842,-0.1301,0.0134,-0.9701,2.38,-6.055,-1.549
1772976333241.5842,-0.132,0.0113,-0.9743,2.643,-6.064,-1.61
1772976333241.5842,-0.1315,0.0126,-0.9708,2.257,-6.037,-1.724
1772976333241.5842,-0.1326,0.0115,-0.9738,2.31,-5.819,-1.759
1772976333241.5842,-0.1322,0.0126,-0.974,2.118,-5.915,-1.435
1772976333241.5842,-0.1328,0.0129,-0.9704,2.502,-5.941,-1.522
1772976333241.5842,-0.1335,0.0129,-0.9733,2.546,-6.09,-1.522
1772976333241.5842,-0.1315,0.014,-0.972,2.433,-5.959,-1.619
1772976333241.5842,-0.1341,0.0134,-0.9718,2.433,-5.723,-1.54
1772976333257.4263,-0.1331,0.0117,-0.9753,2.502,-5.714,-1.488
1772976333257.4263,-0.133,0.012,-0.9741,2.485,-5.862,-1.488
1772976333257.4263,-0.134,0.0112,-0.9718,2.389,-5.53,-1.461
1772976333257.4263,-0.1316,0.0134,-0.9723,2.502,-6.029,-1.601
1772976333257.4263,-0.1322,0.0138,-0.9715,2.284,-6.003,-1.575
1772976333257.4263,-0.1327,0.0124,-0.9728,2.38,-5.889,-1.383
1772976333257.4263,-0.1335,0.0134,-0.9758,2.502,-5.793,-1.321
1772976333257.4263,-0.1315,0.0113,-0.9712,2.59,-5.827,-1.54
1772976333257.4263,-0.1301,0.0107,-0.97,2.555,-5.766,-1.496
1772976333257.4263,-0.1333,0.0094,-0.9707,2.52,-6.046,-1.689
1772976333257.4263,-0.1327,0.0124,-0.9708,2.397,-6.204,-1.575
1772976333257.4263,-0.1319,0.0107,-0.9747,2.695,-5.95,-1.4
1772976333257.4263,-0.132,0.0123,-0.9698,2.476,-5.731,-1.374
1772976333272.85,-0.133,0.0141,-0.9725,2.529,-5.81,-1.278
1772976333272.85,-0.1347,0.0114,-0.9714,2.564,-5.766,-1.383
1772976333272.85,-0.1338,0.0099,-0.9744,2.45,-5.862,-1.356
1772976333272.85,-0.1324,0.0117,-0.972,2.406,-5.915,-1.54
1772976333272.85,-0.1334,0.0134,-0.9713,2.354,-5.775,-1.251
1772976333272.85,-0.1343,0.012,-0.9704,2.301,-6.116,-1.374
1772976333272.85,-0.1335,0.0124,-0.9724,2.275,-5.836,-1.54
1772976333272.85,-0.1342,0.0115,-0.9695,2.529,-5.784,-1.514
1772976333272.85,-0.1317,0.0111,-0.97,2.319,-5.74,-1.479
1772976333272.85,-0.1347,0.0132,-0.9709,2.467,-5.845,-1.479
1772976333272.85,-0.1355,0.0115,-0.9716,2.599,-5.661,-1.663
1772976333272.85,-0.1335,0.0124,-0.9724,2.31,-5.688,-1.365
1772976333288.6262,-0.1337,0.0123,-0.97,2.275,-5.775,-1.365
1772976333288.6262,-0.1355,0.013,-0.9701,2.17,-5.766,-1.505
1772976333288.6262,-0.1327,0.0101,-0.9703,2.336,-5.985,-1.383
1772976333288.6262,-0.1357,0.0115,-0.97,2.397,-5.775,-1.339
1772976333288.6262,-0.135,0.0134,-0.9732,2.223,-5.88,-1.496
1772976333288.6262,-0.1338,0.01,-0.9729,2.039,-5.626,-1.566
1772976333288.6262,-0.1339,0.0115,-0.9727,2.397,-5.871,-1.558
1772976333288.6262,-0.1323,0.0122,-0.9706,2.362,-5.871,-1.593
1772976333288.6262,-0.1337,0.011,-0.9729,2.021,-5.556,-1.514
1772976333288.6262,-0.1325,0.0126,-0.9728,1.969,-5.705,-1.601
1772976333288.6262,-0.1322,0.0119,-0.9737,2.433,-5.871,-1.26
1772976333288.6262,-0.1341,0.0111,-0.9708,2.31,-5.723,-1.33
1772976333288.6262,-0.1341,0.0114,-0.9715,1.995,-5.688,-1.374
1772976333304.7954,-0.1336,0.0119,-0.9719,1.969,-5.74,-1.514
1772976333304.7954,-0.1324,0.0124,-0.9694,2.17,-5.74,-1.558
1772976333304.7954,-0.1339,0.0117,-0.9711,2.188,-5.836,-1.566
1772976333304.7954,-0.1324,0.0102,-0.9706,2.152,-5.959,-1.549
1772976333304.7954,-0.1348,0.0114,-0.9723,2.047,-5.582,-1.356
1772976333304.7954,-0.1341,0.0117,-0.9712,1.978,-5.889,-1.601
1772976333304.7954,-0.1346,0.0084,-0.9707,2.161,-5.749,-1.663
1772976333304.7954,-0.1323,0.012,-0.9694,2.345,-5.915,-1.776
1772976333304.7954,-0.1317,0.0106,-0.9729,2.126,-5.889,-1.654
1772976333304.7954,-0.1329,0.0107,-0.9729,1.82,-5.6,-1.715
1772976333304.7954,-0.1344,0.0093,-0.971,1.969,-5.758,-1.549
1772976333304.7954,-0.1335,0.0102,-0.9705,2.056,-5.749,-1.391
1772976333304.7954,-0.1334,0.0109,-0.9729,2.336,-5.793,-1.531
1772976333321.0378,-0.1345,0.0101,-0.9736,2.266,-5.845,-1.426
1772976333321.0378,-0.1315,0.0099,-0.971,2.292,-6.011,-1.208
1772976333321.0378,-0.1335,0.0115,-0.9717,2.126,-5.889,-1.199
1772976333321.0378,-0.1346,0.0118,-0.9714,2.389,-5.749,-1.584
1772976333321.0378,-0.1351,0.0084,-0.9706,2.249,-5.845,-1.514
1772976333321.0378,-0.1315,0.0118,-0.9744,2.354,-5.889,-1.4
1772976333321.0378,-0.1337,0.0066,-0.9724,2.511,-6.055,-1.426
1772976333321.0378,-0.1329,0.0095,-0.9728,2.24,-5.941,-1.514
1772976333321.0378,-0.1323,0.011,-0.9744,2.109,-5.862,-1.558
1772976333321.0378,-0.1324,0.0105,-0.9719,2.083,-5.81,-1.785
1772976333321.0378,-0.1332,0.0105,-0.9738,2.275,-5.836,-1.61
1772976333321.0378,-0.131,0.0096,-0.9708,2.433,-5.74,-1.409
1772976333321.0378,-0.1311,0.0121,-0.9725,2.546,-5.88,-1.479
1772976333336.7122,-0.1344,0.0087,-0.9726,2.529,-5.994,-1.374
1772976333336.7122,-0.1329,0.0123,-0.9718,2.362,-6.116,-1.549
1772976333336.7122,-0.131,0.0097,-0.9744,2.328,-6.151,-1.619
1772976333336.7122,-0.1315,0.0114,-0.9754,2.476,-5.871,-1.514
1772976333336.7122,-0.1326,0.0093,-0.9726,2.546,-6.02,-1.479
1772976333336.7122,-0.1326,0.0104,-0.9736,2.397,-5.758,-1.566
1772976333336.7122,-0.1312,0.008,-0.9736,2.502,-6.125,-1.461
1772976333336.7122,-0.1335,0.0086,-0.9745,2.345,-5.968,-1.61
1772976333336.7122,-0.1331,0.0104,-0.977,2.362,-6.107,-1.278
1772976333336.7122,-0.1333,0.0102,-0.9738,2.45,-6.029,-1.426
1772976333336.7122,-0.1322,0.0117,-0.974,2.397,-6.029,-1.575
1772976333336.7122,-0.1318,0.012,-0.974,2.441,-6.213,-1.452
1772976333336.7122,-0.1337,0.0099,-0.975,2.485,-6.037,-1.593
1772976333351.546,-0.1328,0.0105,-0.9734,2.572,-6.291,-1.68
1772976333351.546,-0.1337,0.0137,-0.9769,2.634,-6.204,-1.671
1772976333351.546,-0.1342,0.0117,-0.9728,2.459,-6.247,-1.531
1772976333351.546,-0.1305,0.0112,-0.976,2.467,-6.02,-1.444
1772976333351.546,-0.1338,0.0126,-0.9745,2.625,-6.431,-1.479
1772976333351.546,-0.1334,0.0129,-0.9751,2.319,-6.431,-1.496
1772976333351.546,-0.1313,0.0124,-0.9737,2.45,-6.414,-1.479
1772976333351.546,-0.133,0.0123,-0.9729,2.38,-6.361,-1.811
1772976333351.546,-0.1321,0.0137,-0.9744,2.328,-6.44,-1.724
1772976333351.546,-0.1309,0.0137,-0.9771,2.625,-6.536,-1.479
1772976333351.546,-0.1322,0.0112,-0.9755,2.45,-6.396,-1.444
1772976333351.546,-0.1313,0.0112,-0.9728,2.31,-6.484,-1.593
1772976333366.7065,-0.1333,0.0136,-0.9742,2.257,-6.589,-1.61
1772976333366.7065,-0.1332,0.0118,-0.9726,2.52,-6.676,-1.444
1772976333366.7065,-0.1329,0.0128,-0.9754,2.319,-6.388,-1.4
1772976333366.7065,-0.1347,0.012,-0.9758,2.319,-6.545,-1.566
1772976333366.7065,-0.1317,0.0127,-0.9774,2.371,-6.676,-1.627
1772976333366.7065,-0.1329,0.0119,-0.9763,2.345,-6.895,-1.54
1772976333366.7065,-0.1333,0.0146,-0.9745,2.118,-6.668,-1.452
1772976333366.7065,-0.1321,0.014,-0.9766,2.31,-6.72,-1.627
1772976333366.7065,-0.1327,0.0132,-0.9765,2.328,-6.484,-1.593
1772976333366.7065,-0.1351,0.0118,-0.978,2.152,-6.72,-1.724
1772976333366.7065,-0.1326,0.014,-0.9773,2.328,-6.781,-1.566
1772976333366.7065,-0.1335,0.0128,-0.9769,2.284,-6.921,-1.409
1772976333381.824,-0.1309,0.0126,-0.9777,2.249,-7.122,-1.601
1772976333381.824,-0.132,0.0117,-0.9787,2.179,-6.886,-1.584
1772976333381.824,-0.133,0.0142,-0.978,2.17,-7.0,-1.619
1772976333381.824,-0.1329,0.0119,-0.977,2.152,-6.956,-1.584
1772976333381.824,-0.1323,0.0137,-0.9769,2.118,-7.376,-1.496
1772976333381.824,-0.1332,0.0125,-0.975,2.109,-7.192,-1.724
1772976333381.824,-0.1316,0.0144,-0.9738,2.205,-6.974,-1.732
1772976333381.824,-0.1327,0.0118,-0.9748,1.951,-7.009,-1.593
1772976333381.824,-0.1332,0.0127,-0.9734,1.934,-7.192,-1.558
1772976333381.824,-0.1329,0.0127,-0.9736,1.986,-7.088,-1.61
1772976333381.824,-0.1346,0.0121,-0.975,1.951,-7.07,-1.558
1772976333381.824,-0.1343,0.0132,-0.9736,1.724,-7.184,-1.601
1772976333397.9321,-0.133,0.0108,-0.9735,1.986,-7.315,-1.61
1772976333397.9321,-0.1343,0.0131,-0.9736,1.724,-6.912,-1.654
1772976333397.9321,-0.1335,0.0117,-0.9754,1.829,-7.079,-1.444
1772976333397.9321,-0.1347,0.0132,-0.9726,1.68,-6.869,-1.566
1772976333397.9321,-0.1344,0.0102,-0.9714,1.584,-7.0,-1.645
1772976333397.9321,-0.1359,0.0109,-0.9668,1.601,-7.079,-1.496
1772976333397.9321,-0.1353,0.0134,-0.9698,1.356,-7.114,-1.627
1772976333397.9321,-0.1348,0.0124,-0.9711,1.26,-6.834,-1.82
1772976333397.9321,-0.1355,0.01,-0.9704,1.347,-6.772,-1.689
1772976333397.9321,-0.1353,0.0126,-0.9675,1.129,-6.449,-1.654
1772976333397.9321,-0.136,0.0095,-0.9682,1.181,-6.606,-1.488
1772976333397.9321,-0.1372,0.011,-0.9701,1.269,-6.353,-1.689
1772976333397.9321,-0.133,0.0119,-0.968,1.05,-6.204,-1.234
1772976333414.3293,-0.1362,0.0136,-0.968,1.164,-6.265,-1.496
1772976333414.3293,-0.1355,0.0137,-0.9656,0.892,-6.169,-1.522
1772976333414.3293,-0.1362,0.0138,-0.9668,0.779,-5.871,-1.234
1772976333414.3293,-0.1356,0.0136,-0.9654,1.067,-5.985,-1.286
1772976333414.3293,-0.1388,0.011,-0.9669,0.77,-6.003,-1.479
1772976333414.3293,-0.1369,0.012,-0.9675,0.779,-5.652,-1.391
1772976333414.3293,-0.1362,0.0136,-0.9675,0.595,-5.679,-1.54
1772976333414.3293,-0.1396,0.0149,-0.9658,0.578,-5.565,-1.496
1772976333414.3293,-0.1396,0.0141,-0.9661,0.726,-5.232,-1.269
1772976333414.3293,-0.1369,0.0128,-0.9661,0.578,-5.364,-1.312
1772976333414.3293,-0.1367,0.0127,-0.9677,0.674,-5.259,-1.417
1772976333414.3293,-0.1385,0.0132,-0.968,0.726,-5.329,-1.505
1772976333414.3293,-0.1387,0.0127,-0.9653,0.63,-5.311,-1.663
1772976333429.4053,-0.138,0.0143,-0.9673,0.455,-4.944,-1.619
1772976333429.4053,-0.1387,0.0124,-0.9683,0.779,-5.031,-1.575
1772976333429.4053,-0.1387,0.0134,-0.9712,0.604,-5.084,-1.558
1772976333429.4053,-0.1365,0.0163,-0.9687,0.516,-4.786,-1.566
1772976333429.4053,-0.1375,0.0149,-0.9677,0.7,-4.716,-1.33
1772976333429.4053,-0.1377,0.0154,-0.9698,0.586,-4.559,-1.269
1772976333429.4053,-0.1365,0.0137,-0.9725,0.919,-4.848,-1.479
1772976333429.4053,-0.1369,0.016,-0.9732,0.744,-4.883,-1.54
1772976333429.4053,-0.1378,0.0174,-0.9736,0.866,-4.777,-1.558
1772976333429.4053,-0.1371,0.0184,-0.9719,1.059,-4.769,-1.304
1772976333429.4053,-0.1365,0.0162,-0.9721,1.05,-4.69,-1.304
1772976333429.4053,-0.1338,0.0162,-0.9755,1.041,-4.699,-1.365
1772976333429.4053,-0.1366,0.0172,-0.9762,1.129,-4.812,-1.383
1772976333444.8457,-0.1338,0.016,-0.9761,0.98,-4.979,-1.365
1772976333444.8457,-0.136,0.0175,-0.9727,1.059,-5.25,-1.461
1772976333444.8457,-0.1357,0.0186,-0.9762,1.522,-5.18,-1.505
1772976333444.8457,-0.1362,0.0172,-0.9761,1.312,-5.162,-1.68
1772976333444.8457,-0.1349,0.0181,-0.9743,1.374,-5.241,-1.549
1772976333444.8457,-0.1363,0.0173,-0.9765,1.645,-5.425,-1.663
1772976333444.8457,-0.1354,0.0168,-0.9756,1.452,-5.652,-1.47
1772976333444.8457,-0.1332,0.0177,-0.9797,1.794,-5.696,-1.426
1772976333444.8457,-0.1332,0.0171,-0.9794,1.435,-5.714,-1.584
1772976333444.8457,-0.1346,0.0177,-0.9767,1.627,-5.775,-1.531
1772976333444.8457,-0.133,0.016,-0.9778,1.61,-5.959,-1.435
1772976333444.8457,-0.132,0.0182,-0.9762,1.584,-6.09,-1.531
1772976333460.4753,-0.1321,0.0172,-0.9793,1.61,-6.186,-1.627
1772976333460.4753,-0.1314,0.0178,-0.9798,1.864,-6.3,-1.575
1772976333460.4753,-0.1315,0.0156,-0.9793,1.724,-6.449,-1.706
1772976333460.4753,-0.1312,0.0175,-0.9767,1.811,-6.606,-1.794
1772976333460.4753,-0.1304,0.0204,-0.978,1.785,-6.694,-1.802
1772976333460.4753,-0.133,0.018,-0.9761,1.461,-6.589,-1.837
1772976333460.4753,-0.1315,0.0173,-0.9762,1.566,-6.711,-1.654
1772976333460.4753,-0.1308,0.0145,-0.9754,1.61,-6.562,-1.776
1772976333460.4753,-0.1332,0.0162,-0.9754,1.645,-6.974,-1.864
1772976333460.4753,-0.1314,0.0181,-0.9752,1.347,-6.982,-1.82
1772976333460.4753,-0.1319,0.0169,-0.9754,1.488,-7.175,-2.021
1772976333460.4753,-0.1314,0.0168,-0.9755,1.444,-7.079,-2.004
1772976333460.4753,-0.1337,0.0178,-0.9712,1.461,-7.122,-2.021
1772976333475.5886,-0.1308,0.0167,-0.9726,1.461,-7.079,-2.065
1772976333475.5886,-0.1319,0.0186,-0.9709,1.304,-6.834,-2.021
1772976333475.5886,-0.133,0.0174,-0.9709,1.251,-6.991,-1.873
1772976333475.5886,-0.1344,0.0169,-0.9692,1.067,-6.904,-1.785
1772976333475.5886,-0.1327,0.0154,-0.97,0.823,-6.991,-1.654
1772976333475.5886,-0.1338,0.0168,-0.9695,1.024,-7.009,-1.785
1772976333475.5886,-0.1312,0.0172,-0.9694,0.831,-6.545,-1.846
1772976333475.5886,-0.1341,0.0168,-0.9677,0.84,-6.545,-1.829
1772976333475.5886,-0.132,0.0163,-0.9646,0.875,-6.825,-1.768
1772976333475.5886,-0.1333,0.016,-0.9671,0.718,-6.624,-1.82
1772976333475.5886,-0.1351,0.0161,-0.9651,0.542,-6.265,-1.575
1772976333475.5886,-0.1329,0.0146,-0.9677,0.77,-6.309,-1.811
1772976333491.2097,-0.1321,0.0146,-0.9639,0.884,-6.178,-1.942
1772976333491.2097,-0.1356,0.0158,-0.962,0.718,-5.933,-1.855
1772976333491.2097,-0.1305,0.0134,-0.9614,0.595,-5.854,-1.645
1772976333491.2097,-0.1329,0.0154,-0.9647,0.63,-5.819,-1.864
1772976333491.2097,-0.1352,0.0155,-0.9623,0.551,-5.407,-1.794
1772976333491.2097,-0.1368,0.0164,-0.9613,0.604,-5.346,-1.68
1772976333491.2097,-0.1326,0.013,-0.9626,0.665,-5.259,-1.645
1772976333491.2097,-0.1343,0.0153,-0.9665,0.586,-4.742,-1.54
1772976333491.2097,-0.1351,0.0162,-0.9639,0.534,-4.786,-1.531
1772976333491.2097,-0.1343,0.0163,-0.9629,0.866,-5.18,-1.601
1772976333491.2097,-0.1333,0.0165,-0.9645,0.77,-4.935,-1.654
1772976333491.2097,-0.1344,0.0132,-0.9658,0.901,-4.629,-1.671
1772976333491.2097,-0.1352,0.0151,-0.9664,0.761,-4.646,-1.741
1772976333505.8828,-0.1344,0.0151,-0.9647,1.006,-4.357,-1.575
1772976333505.8828,-0.1363,0.0132,-0.9666,0.884,-4.287,-1.278
1772976333505.8828,-0.1362,0.0145,-0.9661,0.901,-4.463,-1.61
1772976333505.8828,-0.1373,0.0137,-0.9689,0.971,-4.314,-1.312
1772976333505.8828,-0.1349,0.0126,-0.9703,1.208,-4.393,-1.26
1772976333505.8828,-0.1349,0.0143,-0.9701,1.347,-4.48,-1.514
1772976333505.8828,-0.136,0.0137,-0.9708,1.452,-4.393,-1.461
1772976333505.8828,-0.1347,0.0134,-0.9735,1.242,-4.454,-1.383
1772976333505.8828,-0.1374,0.0155,-0.9759,1.479,-4.393,-1.33
1772976333505.8828,-0.1344,0.014,-0.9781,1.566,-4.331,-1.269
1772976333505.8828,-0.1357,0.0161,-0.976,1.636,-4.349,-1.094
1772976333505.8828,-0.135,0.0148,-0.9789,2.074,-4.725,-1.076
1772976333521.5142,-0.1351,0.016,-0.9766,2.214,-4.716,-1.304
1772976333521.5142,-0.1359,0.0148,-0.9786,2.371,-4.611,-1.103
1772976333521.5142,-0.136,0.0178,-0.9817,2.415,-4.979,-1.032
1772976333521.5142,-0.1335,0.0168,-0.9837,2.538,-5.346,-1.19
1772976333521.5142,-0.1342,0.0156,-0.9861,2.284,-5.635,-1.129
1772976333521.5142,-0.133,0.0168,-0.9849,2.511,-5.574,-1.111
1772976333521.5142,-0.1327,0.0184,-0.9845,2.66,-5.749,-1.242
1772976333521.5142,-0.1354,0.0185,-0.9875,3.01,-6.195,-1.522
1772976333521.5142,-0.1345,0.0163,-0.9845,3.08,-6.361,-1.365
1772976333521.5142,-0.1351,0.0163,-0.9847,3.132,-6.545,-1.426
1772976333521.5142,-0.1329,0.0161,-0.9856,3.089,-6.457,-1.383
1772976333521.5142,-0.133,0.0176,-0.9846,3.386,-6.86,-1.531
1772976333536.6453,-0.1322,0.0176,-0.9867,3.57,-7.105,-1.383
1772976333536.6453,-0.1321,0.0147,-0.9839,3.587,-7.298,-1.593
1772976333536.6453,-0.1324,0.0161,-0.9869,3.614,-7.324,-1.391
1772976333536.6453,-0.1333,0.0154,-0.9836,3.684,-7.726,-1.601
1772976333536.6453,-0.1327,0.0154,-0.9817,3.587,-7.779,-1.435
1772976333536.6453,-0.134,0.0142,-0.9811,3.868,-8.076,-1.698
1772976333536.6453,-0.1335,0.0137,-0.98,3.85,-8.461,-1.698
1772976333536.6453,-0.1356,0.0151,-0.979,3.754,-8.269,-1.663
1772976333536.6453,-0.1345,0.0146,-0.98,3.692,-8.592,-1.47
1772976333536.6453,-0.1354,0.0143,-0.9778,3.631,-8.164,-1.654
1772976333536.6453,-0.136,0.015,-0.9757,3.553,-8.339,-1.531
1772976333536.6453,-0.1353,0.0126,-0.9759,3.623,-8.426,-1.435
1772976333536.6453,-0.1376,0.0152,-0.9743,3.675,-8.269,-1.505
1772976333552.7832,-0.1362,0.015,-0.9718,3.631,-8.706,-1.4
1772976333552.7832,-0.1358,0.0156,-0.9726,3.272,-8.566,-1.496
1772976333552.7832,-0.1347,0.0153,-0.9715,3.413,-8.348,-1.522
1772976333552.7832,-0.1362,0.0148,-0.9686,3.281,-8.12,-1.479
1772976333552.7832,-0.1385,0.0163,-0.9675,3.474,-7.866,-1.304
1772976333552.7832,-0.1372,0.0155,-0.9668,3.229,-7.665,-1.558
1772976333552.7832,-0.1385,0.0162,-0.9643,3.01,-7.639,-1.417
1772976333552.7832,-0.1401,0.0152,-0.9637,3.167,-7.639,-1.505
1772976333552.7832,-0.139,0.0185,-0.9626,3.369,-7.7,-1.732
1772976333552.7832,-0.1387,0.0184,-0.9619,3.272,-7.096,-1.417
1772976333552.7832,-0.1389,0.0183,-0.9642,3.098,-7.026,-1.444
1772976333552.7832,-0.1373,0.0176,-0.962,3.316,-6.405,-1.4
1772976333552.7832,-0.1367,0.0188,-0.9629,3.159,-6.143,-1.479
1772976333568.096,-0.139,0.0189,-0.9629,3.491,-6.186,-1.435
1772976333568.096,-0.1405,0.0215,-0.9638,3.544,-6.125,-1.234
1772976333568.096,-0.139,0.0184,-0.965,3.561,-5.95,-1.505
1772976333568.096,-0.1374,0.0198,-0.9622,3.684,-5.749,-1.566
1772976333568.096,-0.138,0.0215,-0.9648,3.771,-5.39,-1.461
1772976333568.096,-0.1366,0.0193,-0.9656,3.911,-5.539,-1.566
1772976333568.096,-0.1368,0.0215,-0.9683,4.06,-5.241,-1.575
1772976333568.096,-0.1362,0.0194,-0.9719,4.322,-5.338,-1.488
1772976333568.096,-0.1359,0.0207,-0.9729,4.2,-5.154,-1.164
1772976333568.096,-0.1373,0.0203,-0.9744,4.777,-5.084,-1.409
1772976333568.096,-0.134,0.019,-0.9771,4.725,-4.83,-1.514
1772976333568.096,-0.1354,0.0181,-0.9793,5.066,-4.76,-1.531
1772976333583.9197,-0.1351,0.0187,-0.9808,5.39,-4.979,-1.383
1772976333583.9197,-0.1334,0.0211,-0.9822,5.609,-5.486,-1.4
1772976333583.9197,-0.1303,0.0192,-0.9859,6.099,-5.548,-1.383
1772976333583.9197,-0.1321,0.0188,-0.988,6.029,-5.609,-1.278
1772976333583.9197,-0.1311,0.0175,-0.9892,6.186,-5.845,-1.269
1772976333583.9197,-0.1303,0.0181,-0.9909,6.431,-6.029,-1.278
1772976333583.9197,-0.1291,0.0187,-0.9928,6.571,-6.265,-1.251
1772976333583.9197,-0.1279,0.0176,-0.9956,6.633,-6.536,-1.312
1772976333583.9197,-0.1286,0.0178,-0.995,6.834,-6.746,-1.426
1772976333583.9197,-0.1276,0.0161,-0.9955,6.921,-6.781,-1.479
1772976333583.9197,-0.1291,0.0171,-0.9947,6.982,-7.385,-1.409
1772976333583.9197,-0.1288,0.0146,-0.9947,7.149,-7.849,-1.374
1772976333583.9197,-0.1277,0.0149,-0.9945,7.175,-8.111,-1.4
1772976333599.2954,-0.1293,0.0148,-0.9939,7.245,-8.225,-1.4
1772976333599.2954,-0.1286,0.0146,-0.9928,7.105,-8.549,-1.452
1772976333599.2954,-0.127,0.0132,-0.9902,7.175,-8.925,-1.566
1772976333599.2954,-0.1282,0.0158,-0.9887,7.07,-9.135,-1.619
1772976333599.2954,-0.1289,0.0124,-0.9889,7.079,-9.275,-1.505
1772976333599.2954,-0.1277,0.0139,-0.9866,6.834,-9.38,-1.531
1772976333599.2954,-0.1323,0.0123,-0.9851,6.571,-9.529,-1.374
1772976333599.2954,-0.1305,0.0135,-0.9818,6.501,-9.634,-1.505
1772976333599.2954,-0.131,0.0114,-0.9851,6.58,-9.607,-1.54
1772976333599.2954,-0.1277,0.0135,-0.9804,6.44,-9.52,-1.549
1772976333599.2954,-0.1295,0.0137,-0.9794,5.976,-9.607,-1.645
1772976333599.2954,-0.1308,0.0132,-0.9774,5.871,-9.625,-1.663
1772976333614.6335,-0.1298,0.0131,-0.9772,5.696,-9.59,-1.47
1772976333614.6335,-0.1302,0.0116,-0.975,5.819,-9.459,-1.619
1772976333614.6335,-0.1303,0.014,-0.9738,5.793,-9.415,-1.531
1772976333614.6335,-0.1335,0.0125,-0.9734,5.504,-9.363,-1.356
1772976333614.6335,-0.1325,0.0132,-0.9732,5.434,-9.223,-1.671
1772976333614.6335,-0.1317,0.0155,-0.9723,5.241,-8.925,-1.444
1772976333614.6335,-0.1349,0.0162,-0.9751,5.355,-8.61,-1.409
1772976333614.6335,-0.1333,0.0175,-0.9762,5.276,-8.356,-1.295
1772976333614.6335,-0.1357,0.0184,-0.9757,5.617,-8.207,-1.356
1772976333614.6335,-0.1358,0.0188,-0.9755,5.539,-7.849,-1.409
1772976333614.6335,-0.1376,0.0203,-0.9753,5.617,-7.683,-1.181
1772976333614.6335,-0.1373,0.0224,-0.9764,5.723,-7.157,-1.409
1772976333614.6335,-0.1374,0.0227,-0.979,6.265,-7.332,-1.461
1772976333630.0923,-0.1369,0.0242,-0.9776,6.466,-6.956,-1.409
1772976333630.0923,-0.1394,0.0251,-0.9799,6.895,-6.457,-1.444
1772976333630.0923,-0.1399,0.0244,-0.9784,7.219,-6.046,-1.47
1772976333630.0923,-0.1443,0.0276,-0.9794,7.612,-5.652,-1.33
1772976333630.0923,-0.1445,0.0253,-0.9771,8.059,-5.197,-1.391
1772976333630.0923,-0.1452,0.0289,-0.9741,8.4,-4.909,-1.435
1772976333630.0923,-0.1455,0.0277,-0.9753,8.741,-4.506,-1.304
1772976333630.0923,-0.1455,0.0299,-0.974,9.467,-4.025,-1.33
1772976333630.0923,-0.1471,0.0309,-0.9721,10.369,-3.465,-1.417
1772976333630.0923,-0.1475,0.0295,-0.9714,10.719,-3.159,-1.304
1772976333630.0923,-0.1515,0.0293,-0.9712,11.305,-2.8,-1.4
1772976333630.0923,-0.151,0.0282,-0.9689,11.812,-2.1,-1.558
1772976333645.2998,-0.1536,0.0284,-0.9702,12.477,-1.741,-1.452
1772976333645.2998,-0.1528,0.0256,-0.9703,12.932,-1.199,-1.312
1772976333645.2998,-0.1549,0.0262,-0.9683,13.422,-0.674,-1.383
1772976333645.2998,-0.1527,0.0279,-0.9649,13.807,-0.175,-1.514
1772976333645.2998,-0.1537,0.0245,-0.9647,14.201,0.464,-1.452
1772976333645.2998,-0.155,0.0213,-0.9611,14.586,0.7,-1.347
1772976333645.2998,-0.1565,0.0213,-0.9601,14.787,1.111,-1.461
1772976333645.2998,-0.1558,0.0195,-0.959,14.971,1.942,-1.269
1772976333645.2998,-0.1537,0.0182,-0.958,15.251,2.039,-1.242
1772976333645.2998,-0.1534,0.0159,-0.9573,15.304,2.336,-1.085
1772976333645.2998,-0.153,0.0159,-0.9573,15.531,2.861,-1.094
1772976333645.2998,-0.1537,0.0135,-0.956,15.444,3.036,-1.085
1772976333660.6846,-0.1507,0.0096,-0.9556,15.033,3.203,-0.875
1772976333660.6846,-0.151,0.0071,-0.9534,15.05,3.553,-0.84
1772976333660.6846,-0.1494,0.0047,-0.9528,14.691,3.797,-0.752
1772976333660.6846,-0.1518,0.0018,-0.952,14.201,4.025,-0.823
1772976333660.6846,-0.15,0.0012,-0.9524,13.834,4.104,-0.927
1772976333660.6846,-0.1502,-0.0013,-0.9484,13.422,4.191,-0.735
1772976333660.6846,-0.1473,-0.0016,-0.95,12.976,4.183,-0.831
1772976333660.6846,-0.1475,-0.0036,-0.9484,12.329,4.314,-0.796
1772976333660.6846,-0.1433,-0.0044,-0.9475,11.646,4.226,-0.613
1772976333660.6846,-0.1424,-0.0068,-0.9489,10.981,4.489,-0.604
1772976333660.6846,-0.1414,-0.0082,-0.9496,10.045,4.244,-0.613
1772976333660.6846,-0.1421,-0.0084,-0.952,9.389,3.981,-0.726
1772976333660.6846,-0.1405,-0.0092,-0.9463,8.531,3.763,-0.525
1772976333676.6094,-0.1405,-0.0107,-0.949,7.718,3.876,-0.77
1772976333676.6094,-0.1364,-0.0097,-0.9507,6.58,3.544,-0.779
1772976333676.6094,-0.1362,-0.0123,-0.9507,5.723,3.246,-0.569
1772976333676.6094,-0.138,-0.0115,-0.9495,5.014,2.975,-0.735
1772976333676.6094,-0.1366,-0.0112,-0.9549,4.06,2.467,-0.814
1772976333676.6094,-0.1355,-0.0099,-0.954,3.237,2.144,-0.63
1772976333676.6094,-0.1349,-0.0085,-0.9532,2.1,1.873,-0.849
1772976333676.6094,-0.1358,-0.0107,-0.9551,1.426,1.295,-0.875
1772976333676.6094,-0.1318,-0.0124,-0.9554,0.42,1.067,-0.858
1772976333676.6094,-0.1341,-0.0082,-0.9572,-0.367,0.621,-0.91
1772976333676.6094,-0.1324,-0.0063,-0.9584,-0.849,-0.044,-1.05
1772976333676.6094,-0.1301,-0.0057,-0.9582,-1.68,-0.551,-0.84
1772976333676.6094,-0.131,-0.0068,-0.9615,-2.24,-0.744,-0.91
1772976333691.7844,-0.1274,-0.0038,-0.9589,-2.905,-1.269,-1.155
1772976333691.7844,-0.1308,-0.0037,-0.962,-3.264,-1.706,-1.006
1772976333691.7844,-0.1316,-0.0024,-0.9649,-3.868,-2.126,-1.103
1772976333691.7844,-0.1305,-0.0014,-0.9647,-4.235,-2.993,-1.173
1772976333691.7844,-0.1286,-0.0002,-0.9663,-4.419,-3.342,-1.103
1772976333691.7844,-0.128,0.0012,-0.9661,-4.76,-3.929,-1.242
1772976333691.7844,-0.1288,0.0015,-0.9651,-4.918,-4.349,-1.426
1772976333691.7844,-0.1286,0.0026,-0.9671,-5.084,-4.655,-1.356
1772976333691.7844,-0.1263,0.0047,-0.9698,-4.944,-5.119,-1.496
1772976333691.7844,-0.1273,0.0049,-0.9695,-4.9,-5.565,-1.444
1772976333691.7844,-0.1254,0.0067,-0.9695,-5.128,-6.09,-1.417
1772976333691.7844,-0.1256,0.0083,-0.9714,-5.276,-6.265,-1.461
1772976333707.339,-0.1265,0.009,-0.971,-5.11,-6.466,-1.627
1772976333707.339,-0.1284,0.0085,-0.9689,-4.751,-6.886,-1.575
1772976333707.339,-0.1272,0.0084,-0.9698,-4.673,-7.131,-1.619
1772976333707.339,-0.1268,0.0108,-0.9717,-4.147,-7.359,-1.82
1772976333707.339,-0.1277,0.0092,-0.9719,-3.981,-7.481,-1.732
1772976333707.339,-0.1276,0.0095,-0.9684,-3.71,-7.831,-1.837
1772976333707.339,-0.1256,0.0113,-0.9708,-3.439,-8.041,-1.978
1772976333707.339,-0.1272,0.0115,-0.9706,-3.08,-7.779,-1.759
1772976333707.339,-0.1293,0.0113,-0.9713,-2.748,-7.945,-1.837
1772976333707.339,-0.1271,0.0102,-0.9727,-2.651,-7.796,-1.907
1772976333707.339,-0.1269,0.0085,-0.9728,-2.17,-7.761,-1.995
1772976333707.339,-0.1263,0.0106,-0.9715,-1.715,-8.12,-1.802
1772976333707.339,-0.1282,0.009,-0.9701,-1.593,-7.849,-1.873
1772976333723.4304,-0.128,0.0071,-0.9706,-1.199,-7.385,-1.881
1772976333723.4304,-0.1271,0.0084,-0.9697,-0.682,-7.455,-1.829
1772976333723.4304,-0.128,0.007,-0.9689,-0.455,-7.298,-1.925
1772976333723.4304,-0.1271,0.0077,-0.9723,-0.131,-7.236,-1.942
1772976333723.4304,-0.1293,0.0072,-0.9702,-0.105,-7.201,-1.942
1772976333723.4304,-0.1283,0.0056,-0.9697,0.061,-6.764,-1.864
1772976333723.4304,-0.1274,0.0057,-0.973,0.429,-6.466,-2.039
1772976333723.4304,-0.1262,0.0026,-0.9714,0.744,-6.274,-2.03
1772976333723.4304,-0.1266,0.004,-0.9729,0.945,-6.169,-1.89
1772976333723.4304,-0.1268,0.006,-0.9737,0.823,-6.072,-2.118
1772976333723.4304,-0.1262,0.0054,-0.9729,0.892,-5.766,-1.951
1772976333723.4304,-0.1255,0.0046,-0.9758,1.137,-5.548,-1.663
1772976333723.4304,-0.1252,0.0035,-0.974,1.225,-5.303,-1.706
1772976333739.24,-0.1255,0.0051,-0.9757,0.971,-5.364,-1.759
1772976333739.24,-0.1244,0.0051,-0.9765,1.33,-5.285,-1.881
1772976333739.24,-0.1254,0.0055,-0.9745,1.208,-5.093,-1.671
1772976333739.24,-0.1258,0.0047,-0.9766,1.059,-4.874,-1.558
1772976333739.24,-0.1253,0.0065,-0.9764,1.173,-4.839,-1.636
1772976333739.24,-0.1246,0.0062,-0.9789,1.076,-4.594,-1.732
1772976333739.24,-0.1255,0.0057,-0.9801,1.024,-4.393,-1.522
1772976333739.24,-0.1259,0.0071,-0.9813,1.041,-4.454,-1.505
1772976333739.24,-0.1235,0.0092,-0.9797,0.726,-4.707,-1.724
1772976333739.24,-0.1212,0.0073,-0.9794,0.805,-4.41,-1.732
1772976333739.24,-0.1239,0.0073,-0.978,0.858,-4.471,-1.627
1772976333739.24,-0.1256,0.0106,-0.9795,0.411,-4.638,-1.724
1772976333739.24,-0.1229,0.0107,-0.9826,0.613,-4.742,-1.768
1772976333754.8452,-0.1225,0.0109,-0.9793,0.455,-4.83,-1.461
1772976333754.8452,-0.1232,0.0133,-0.9793,0.289,-5.022,-1.479
1772976333754.8452,-0.125,0.0132,-0.98,0.21,-4.996,-1.575
1772976333754.8452,-0.1233,0.0148,-0.9812,0.297,-5.031,-1.689
1772976333754.8452,-0.1236,0.0151,-0.9809,0.131,-5.075,-1.68
1772976333754.8452,-0.1232,0.0155,-0.9811,-0.087,-5.276,-1.671
1772976333754.8452,-0.1235,0.0195,-0.9806,-0.236,-5.399,-1.461
1772976333754.8452,-0.1232,0.0184,-0.9803,-0.105,-5.652,-1.444
1772976333754.8452,-0.1246,0.0184,-0.9797,0.009,-5.871,-1.417
1772976333754.8452,-0.125,0.0179,-0.9807,-0.061,-5.827,-1.619
1772976333754.8452,-0.1238,0.0208,-0.9805,-0.026,-6.23,-1.47
1772976333754.8452,-0.1261,0.0214,-0.9782,-0.07,-6.081,-1.558
1772976333754.8452,-0.1274,0.0203,-0.9778,0.0,-6.388,-1.479
1772976333770.5876,-0.1243,0.0235,-0.9801,-0.035,-6.519,-1.391
1772976333770.5876,-0.1251,0.0228,-0.9801,-0.131,-6.44,-1.671
1772976333770.5876,-0.1271,0.023,-0.9773,-0.087,-6.729,-1.558
1772976333770.5876,-0.1277,0.0238,-0.9788,0.052,-7.035,-1.741
1772976333770.5876,-0.1285,0.0233,-0.9808,0.394,-7.21,-1.75
1772976333770.5876,-0.1283,0.0242,-0.98,0.49,-7.28,-1.802
1772976333770.5876,-0.1281,0.0256,-0.9812,0.438,-7.192,-1.855
1772976333770.5876,-0.1282,0.0232,-0.9769,0.315,-7.63,-1.706
1772976333770.5876,-0.1297,0.0251,-0.9761,0.175,-7.621,-1.531
1772976333770.5876,-0.129,0.0235,-0.9784,0.499,-7.779,-1.488
1772976333770.5876,-0.1291,0.0236,-0.9792,0.709,-8.006,-1.741
1772976333770.5876,-0.1324,0.0237,-0.9746,0.752,-8.129,-1.75
1772976333785.8096,-0.1316,0.0228,-0.9775,0.98,-8.068,-1.741
1772976333785.8096,-0.1301,0.0245,-0.9762,0.954,-8.129,-1.479
1772976333785.8096,-0.1312,0.0241,-0.9765,0.963,-8.137,-1.452
1772976333785.8096,-0.135,0.0231,-0.9755,1.234,-8.111,-1.496
1772976333785.8096,-0.1335,0.0253,-0.9751,1.391,-8.383,-1.619
1772976333785.8096,-0.1328,0.024,-0.9765,1.549,-8.312,-1.663
1772976333785.8096,-0.1347,0.0233,-0.9766,1.374,-8.155,-1.558
1772976333785.8096,-0.134,0.0234,-0.9743,1.461,-8.365,-1.593
1772976333785.8096,-0.1342,0.0215,-0.9733,1.82,-8.216,-1.741
1772976333785.8096,-0.1349,0.0236,-0.9757,1.802,-8.137,-1.601
1772976333785.8096,-0.1338,0.0211,-0.9755,1.794,-8.181,-1.82
1772976333785.8096,-0.135,0.0189,-0.9736,1.855,-8.05,-1.689
1772976333785.8096,-0.1352,0.021,-0.9737,1.916,-8.164,-1.47
1772976333800.9368,-0.1354,0.0193,-0.9758,2.196,-7.875,-1.251
1772976333800.9368,-0.1349,0.0197,-0.9744,2.214,-7.954,-1.593
1772976333800.9368,-0.137,0.0189,-0.9755,2.371,-7.901,-1.435
1772976333800.9368,-0.1368,0.0207,-0.9737,2.406,-7.718,-1.365
1772976333800.9368,-0.1365,0.0192,-0.9708,2.607,-7.534,-1.461
1772976333800.9368,-0.1351,0.0173,-0.9716,2.607,-7.324,-1.137
1772976333800.9368,-0.1369,0.0172,-0.9715,2.643,-7.271,-1.269
1772976333800.9368,-0.1368,0.0154,-0.9728,2.922,-7.254,-1.269
1772976333800.9368,-0.1363,0.017,-0.9727,2.905,-7.271,-1.321
1772976333800.9368,-0.1385,0.0173,-0.9739,3.106,-6.895,-1.286
1772976333800.9368,-0.1334,0.0167,-0.9715,3.045,-7.105,-1.286
1772976333800.9368,-0.1368,0.0169,-0.9708,3.15,-6.729,-1.374
1772976333816.2231,-0.1349,0.0176,-0.9722,2.984,-6.668,-1.347
1772976333816.2231,-0.1362,0.0141,-0.9721,3.089,-6.457,-1.347
1772976333816.2231,-0.1357,0.015,-0.9726,2.975,-6.536,-1.522
1772976333816.2231,-0.1334,0.0152,-0.9723,3.194,-6.423,-1.663
1772976333816.2231,-0.1351,0.014,-0.9702,3.062,-6.3,-1.365
1772976333816.2231,-0.1352,0.0144,-0.9695,3.299,-6.204,-1.584
1772976333816.2231,-0.1363,0.0136,-0.9695,3.36,-5.968,-1.488
1772976333816.2231,-0.136,0.0143,-0.9723,3.264,-5.696,-1.444
1772976333816.2231,-0.1365,0.0119,-0.9698,3.255,-5.775,-1.575
1772976333816.2231,-0.1366,0.0127,-0.9677,3.509,-5.626,-1.698
1772976333816.2231,-0.1364,0.0137,-0.9699,3.395,-5.469,-1.383
1772976333816.2231,-0.1343,0.0118,-0.969,3.211,-5.346,-1.452
1772976333831.7812,-0.1332,0.0126,-0.9694,3.141,-5.224,-1.575
1772976333831.7812,-0.1355,0.0099,-0.9684,3.194,-5.268,-1.347
1772976333831.7812,-0.1364,0.0099,-0.9697,3.255,-5.294,-1.356
1772976333831.7812,-0.1342,0.0099,-0.9682,3.246,-5.066,-1.435
1772976333831.7812,-0.1352,0.011,-0.9686,3.316,-5.215,-1.522
1772976333831.7812,-0.1362,0.009,-0.9688,3.29,-5.224,-1.706
1772976333831.7812,-0.135,0.0109,-0.9697,3.255,-4.725,-1.776
1772976333831.7812,-0.136,0.0101,-0.9677,3.167,-4.69,-1.698
1772976333831.7812,-0.1363,0.0099,-0.9686,3.001,-4.497,-1.409
1772976333831.7812,-0.1373,0.0088,-0.9688,3.08,-4.777,-1.566
1772976333831.7812,-0.1368,0.0099,-0.9694,3.062,-5.014,-1.636
1772976333831.7812,-0.1344,0.0081,-0.9697,2.931,-4.664,-1.619
1772976333831.7812,-0.1343,0.0076,-0.9697,2.896,-4.725,-1.54
1772976333849.1858,-0.136,0.0083,-0.9667,2.888,-4.891,-1.514
1772976333849.1858,-0.1382,0.0083,-0.9689,2.914,-4.699,-1.663
1772976333849.1858,-0.1351,0.008,-0.9684,2.958,-4.804,-1.496
1772976333849.1858,-0.1374,0.0086,-0.965,2.861,-4.699,-1.627
1772976333849.1858,-0.136,0.0088,-0.9706,2.748,-4.795,-1.663
1772976333849.1858,-0.1376,0.008,-0.9656,2.809,-4.777,-1.741
1772976333849.1858,-0.135,0.0092,-0.9679,2.686,-4.646,-1.89
1772976333849.1858,-0.1372,0.0081,-0.9681,2.607,-4.777,-1.75
1772976333849.1858,-0.1345,0.0084,-0.9689,2.73,-4.952,-1.645
1772976333849.1858,-0.1343,0.0088,-0.9679,2.424,-5.162,-1.768
1772976333849.1858,-0.1354,0.0099,-0.9634,2.266,-4.961,-1.951
1772976333849.1858,-0.136,0.0101,-0.9676,2.118,-4.725,-1.601
1772976333849.1858,-0.1371,0.0083,-0.9692,2.424,-4.97,-1.601
1772976333849.1858,-0.1354,0.0102,-0.9682,2.24,-4.865,-1.584
1772976333863.3855,-0.1361,0.0095,-0.9659,2.179,-4.987,-1.802
1772976333863.3855,-0.1378,0.0117,-0.9662,2.144,-5.066,-1.706
1772976333863.3855,-0.1355,0.0097,-0.9675,1.907,-4.891,-1.61
1772976333863.3855,-0.1375,0.0092,-0.9666,1.916,-5.058,-1.61
1772976333863.3855,-0.1346,0.0111,-0.9686,2.039,-5.145,-1.715
1772976333863.3855,-0.1356,0.0117,-0.969,1.855,-5.425,-1.768
1772976333863.3855,-0.1354,0.0121,-0.9676,1.627,-5.338,-1.89
1772976333863.3855,-0.1373,0.0119,-0.9673,1.654,-5.215,-1.514
1772976333863.3855,-0.1354,0.0088,-0.967,1.558,-5.434,-1.374
1772976333863.3855,-0.1363,0.0111,-0.9686,1.286,-5.372,-1.584
1772976333863.3855,-0.1363,0.0107,-0.9682,1.103,-5.486,-1.496
1772976333878.643,-0.1361,0.01,-0.9686,1.286,-5.635,-1.698
1772976333878.643,-0.1346,0.0127,-0.9656,1.19,-5.591,-1.549
1772976333878.643,-0.1352,0.0147,-0.9656,1.383,-5.591,-1.566
1772976333878.643,-0.1374,0.0142,-0.9694,1.321,-5.705,-1.593
1772976333878.643,-0.1332,0.0146,-0.9698,1.347,-5.74,-1.619
1772976333878.643,-0.1383,0.0137,-0.9701,1.076,-5.688,-1.732
1772976333878.643,-0.1366,0.0154,-0.9704,0.901,-5.548,-1.601
1772976333878.643,-0.1357,0.0149,-0.9689,0.796,-5.513,-1.488
1772976333878.643,-0.1374,0.0135,-0.967,0.77,-5.74,-1.47
1772976333878.643,-0.1357,0.0151,-0.9701,0.901,-6.046,-1.706
1772976333878.643,-0.1376,0.0139,-0.9687,0.814,-6.081,-1.531
1772976333878.643,-0.137,0.0176,-0.9693,0.718,-6.09,-1.776
1772976333878.643,-0.1345,0.0152,-0.9705,0.752,-5.985,-1.601
1772976333894.6494,-0.1366,0.0166,-0.9687,0.56,-6.186,-1.663
1772976333894.6494,-0.1357,0.016,-0.9676,0.691,-6.265,-1.68
1772976333894.6494,-0.1355,0.0159,-0.9703,0.84,-6.151,-1.593
1772976333894.6494,-0.1371,0.0151,-0.9686,0.866,-6.449,-1.802
1772976333894.6494,-0.1354,0.019,-0.9721,0.472,-6.291,-1.89
1772976333894.6494,-0.1346,0.0173,-0.974,0.709,-6.116,-1.645
1772976333894.6494,-0.1368,0.0171,-0.9736,0.858,-6.379,-1.837
1772976333894.6494,-0.1327,0.0162,-0.975,0.752,-6.484,-1.759
1772976333894.6494,-0.1346,0.0171,-0.9746,0.621,-6.326,-1.671
1772976333894.6494,-0.1341,0.0161,-0.9736,0.674,-6.475,-1.75
1772976333894.6494,-0.1327,0.0176,-0.9737,0.7,-6.484,-1.811
1772976333894.6494,-0.136,0.0148,-0.9741,0.542,-6.676,-1.794
1772976333894.6494,-0.1355,0.0154,-0.9759,0.682,-6.72,-1.706
1772976333910.288,-0.1322,0.0164,-0.9732,0.534,-6.86,-1.846
1772976333910.288,-0.1343,0.0184,-0.977,0.534,-7.035,-1.663
1772976333910.288,-0.1316,0.016,-0.9773,0.551,-7.07,-1.663
1772976333910.288,-0.133,0.0179,-0.9792,0.525,-7.201,-1.601
1772976333910.288,-0.1347,0.0173,-0.9782,0.752,-7.236,-1.715
1772976333910.288,-0.1322,0.0165,-0.976,0.481,-7.21,-1.671
1772976333910.288,-0.1308,0.0167,-0.978,0.359,-7.228,-1.837
1772976333910.288,-0.1302,0.0194,-0.979,0.569,-7.35,-1.68
1772976333910.288,-0.1332,0.0175,-0.9787,0.604,-7.481,-1.75
1772976333910.288,-0.1319,0.0162,-0.9772,0.726,-7.577,-1.986
1772976333910.288,-0.1312,0.0193,-0.978,0.7,-7.709,-1.75
1772976333910.288,-0.1309,0.019,-0.9798,0.604,-7.63,-1.671
1772976333910.288,-0.1305,0.0193,-0.9771,0.56,-7.551,-1.846
1772976333925.8403,-0.1319,0.0205,-0.9784,0.586,-7.84,-1.942
1772976333925.8403,-0.1316,0.0163,-0.9783,0.578,-8.041,-1.82
1772976333925.8403,-0.1312,0.017,-0.9792,0.411,-8.181,-2.144
1772976333925.8403,-0.13,0.0183,-0.98,0.639,-8.234,-1.978
1772976333925.8403,-0.1313,0.0204,-0.9809,0.805,-8.102,-1.811
1772976333925.8403,-0.1304,0.021,-0.9791,0.971,-8.085,-1.951
1772976333925.8403,-0.1325,0.0192,-0.9769,1.103,-8.146,-1.873
1772976333925.8403,-0.1326,0.02,-0.9788,0.945,-7.875,-1.864
1772976333925.8403,-0.1315,0.021,-0.9744,0.98,-7.683,-1.881
1772976333925.8403,-0.1319,0.0178,-0.9775,1.251,-7.893,-1.768
1772976333925.8403,-0.1323,0.0217,-0.9748,1.365,-7.98,-1.942
1772976333925.8403,-0.134,0.0201,-0.9753,1.426,-7.796,-1.741
1772976333940.8645,-0.1342,0.0205,-0.9708,1.671,-7.814,-1.759
1772976333940.8645,-0.1327,0.0224,-0.9749,1.846,-7.665,-1.488
1772976333940.8645,-0.1337,0.0212,-0.9739,1.82,-7.516,-1.698
1772976333940.8645,-0.1341,0.0219,-0.9728,1.96,-7.219,-1.619
1772976333940.8645,-0.134,0.0191,-0.9737,2.083,-7.026,-1.601
1772976333940.8645,-0.1366,0.0203,-0.9726,2.284,-6.947,-1.724
1772976333940.8645,-0.1345,0.0198,-0.9708,2.345,-6.904,-1.855
1772976333940.8645,-0.1346,0.0201,-0.9711,2.406,-6.799,-1.593
1772976333940.8645,-0.1373,0.0205,-0.9728,2.441,-6.641,-1.514
1772976333940.8645,-0.1367,0.0212,-0.969,2.791,-6.353,-1.514
1772976333940.8645,-0.1332,0.021,-0.9693,3.176,-6.143,-1.584
1772976333940.8645,-0.1347,0.0205,-0.9714,3.132,-6.116,-1.496
1772976333956.253,-0.1379,0.0184,-0.9723,3.176,-5.941,-1.654
1772976333956.253,-0.1364,0.0174,-0.9722,3.264,-5.827,-1.584
1772976333956.253,-0.1345,0.0199,-0.9705,3.456,-5.67,-1.47
1772976333956.253,-0.1371,0.0188,-0.9712,3.649,-5.486,-1.496
1772976333956.253,-0.1353,0.0199,-0.9711,3.868,-5.093,-1.496
1772976333956.253,-0.1375,0.0192,-0.9708,3.868,-5.119,-1.426
1772976333956.253,-0.1371,0.0173,-0.9702,3.544,-4.856,-1.225
1772976333956.253,-0.1364,0.0149,-0.9704,3.938,-4.874,-1.417
1772976333956.253,-0.1374,0.0174,-0.9709,3.824,-4.83,-1.4
1772976333956.253,-0.1355,0.0171,-0.9695,3.745,-4.655,-1.234
1772976333956.253,-0.1369,0.0157,-0.9693,3.833,-4.559,-1.251
1772976333956.253,-0.1361,0.0156,-0.969,3.859,-4.541,-1.137
1772976333956.253,-0.1335,0.017,-0.9692,3.701,-4.261,-1.216
1772976333971.429,-0.1355,0.0187,-0.9687,3.911,-4.419,-1.111
1772976333971.429,-0.1349,0.0167,-0.9719,3.797,-4.121,-1.304
1772976333971.429,-0.1343,0.0162,-0.9717,3.71,-4.156,-1.321
1772976333971.429,-0.136,0.0157,-0.9719,3.719,-4.27,-1.234
1772976333971.429,-0.1338,0.0152,-0.969,3.736,-4.147,-0.954
1772976333971.429,-0.1329,0.0145,-0.9709,3.579,-4.043,-1.12
1772976333971.429,-0.1341,0.0146,-0.9711,3.518,-4.331,-1.295
1772976333971.429,-0.1333,0.0162,-0.9729,3.395,-4.2,-1.164
1772976333971.429,-0.1346,0.0127,-0.9704,3.465,-4.279,-1.024
1772976333971.429,-0.1347,0.0163,-0.9728,3.377,-4.454,-0.936
1772976333971.429,-0.1337,0.0146,-0.9684,3.159,-4.436,-1.155
1772976333971.429,-0.1327,0.0155,-0.9697,3.167,-4.428,-0.919
1772976333986.781,-0.134,0.0163,-0.9716,2.695,-4.646,-1.024
1772976333986.781,-0.1349,0.0152,-0.9731,2.87,-4.62,-1.129
1772976333986.781,-0.133,0.0143,-0.9705,2.8,-4.664,-1.374
1772976333986.781,-0.1347,0.0151,-0.9704,2.8,-4.839,-1.225
1772976333986.781,-0.1347,0.0174,-0.9737,2.572,-4.952,-1.05
1772976333986.781,-0.1354,0.0153,-0.9705,2.529,-5.066,-1.286
1772976333986.781,-0.1337,0.0134,-0.9722,2.397,-5.04,-1.234
1772976333986.781,-0.1338,0.014,-0.9734,2.362,-5.259,-1.059
1772976333986.781,-0.1307,0.0134,-0.9734,2.459,-5.399,-1.269
1772976333986.781,-0.1333,0.0163,-0.9738,2.266,-5.504,-1.19
1772976333986.781,-0.1319,0.016,-0.9705,2.45,-5.871,-1.347
1772976333986.781,-0.1337,0.0128,-0.9729,2.494,-6.134,-1.295
1772976333986.781,-0.134,0.0148,-0.9719,2.354,-6.186,-1.269
1772976334002.8167,-0.1357,0.0138,-0.9729,2.231,-6.003,-1.295
1772976334002.8167,-0.133,0.0148,-0.9719,2.31,-5.915,-1.339
1772976334002.8167,-0.1339,0.015,-0.9742,2.319,-6.055,-1.365
1772976334002.8167,-0.1335,0.0154,-0.9751,2.555,-6.291,-1.304
1772976334002.8167,-0.1332,0.0152,-0.9717,2.45,-6.466,-1.566
1772976334002.8167,-0.134,0.013,-0.9711,2.581,-6.44,-1.479
1772976334002.8167,-0.1326,0.0131,-0.9722,2.494,-6.274,-1.636
1772976334002.8167,-0.1344,0.014,-0.9748,2.599,-6.633,-1.365
1772976334002.8167,-0.1332,0.0141,-0.972,2.783,-6.729,-1.391
1772976334002.8167,-0.1332,0.0137,-0.975,2.704,-6.93,-1.61
1772976334002.8167,-0.1341,0.0151,-0.97,2.975,-7.009,-1.435
1772976334002.8167,-0.1348,0.0147,-0.9711,3.089,-6.737,-1.558
1772976334018.7893,-0.1332,0.0156,-0.9717,2.993,-6.755,-1.601
1772976334018.7893,-0.1343,0.0143,-0.9725,3.027,-6.904,-1.706
1772976334018.7893,-0.1346,0.0153,-0.9728,3.132,-6.947,-1.75
1772976334018.7893,-0.1356,0.0135,-0.9744,3.281,-6.825,-1.549
1772976334018.7893,-0.1341,0.0135,-0.9716,3.342,-6.694,-1.776
1772976334018.7893,-0.1343,0.0109,-0.9736,3.518,-7.053,-1.829
1772976334018.7893,-0.1344,0.0126,-0.9738,3.719,-7.026,-1.82
1772976334018.7893,-0.1353,0.0149,-0.9722,3.369,-6.834,-1.741
1772976334018.7893,-0.1333,0.0135,-0.9742,3.535,-7.219,-1.916
1772976334018.7893,-0.1332,0.0127,-0.9752,3.806,-6.93,-1.855
1772976334018.7893,-0.1371,0.0113,-0.9748,3.885,-7.122,-1.881
1772976334018.7893,-0.1352,0.0115,-0.9742,3.526,-6.991,-1.706
1772976334018.7893,-0.1349,0.0126,-0.9702,3.797,-6.947,-1.829
1772976334018.7893,-0.1332,0.0128,-0.973,3.99,-6.947,-1.645
1772976334034.1892,-0.1368,0.0138,-0.974,4.27,-6.527,-1.549
1772976334034.1892,-0.1357,0.0135,-0.9722,4.34,-6.624,-2.074
1772976334034.1892,-0.1344,0.0128,-0.9744,3.955,-6.93,-1.68
1772976334034.1892,-0.1349,0.0136,-0.9767,3.771,-7.026,-1.593
1772976334034.1892,-0.1333,0.0117,-0.9751,4.008,-6.772,-1.732
1772976334034.1892,-0.1333,0.0129,-0.972,3.973,-6.816,-1.916
1772976334034.1892,-0.1327,0.0131,-0.9711,4.121,-6.79,-1.907
1772976334034.1892,-0.1348,0.0138,-0.9726,3.964,-6.904,-1.698
1772976334034.1892,-0.132,0.0119,-0.9738,4.147,-6.746,-1.942
1772976334034.1892,-0.1351,0.0138,-0.9737,4.104,-6.869,-1.907
1772976334034.1892,-0.1396,0.0152,-0.9766,3.955,-6.554,-1.768
1772976334034.1892,-0.1346,0.0133,-0.9755,3.938,-6.309,-1.741
1772976334049.8997,-0.1335,0.0134,-0.9736,3.797,-6.554,-1.636
1772976334049.8997,-0.1347,0.0145,-0.9737,3.894,-6.423,-1.724
1772976334049.8997,-0.1349,0.0147,-0.9747,3.876,-6.51,-1.794
1772976334049.8997,-0.1352,0.0136,-0.9754,3.929,-6.431,-1.759
1772976334049.8997,-0.1334,0.0173,-0.9723,3.911,-6.492,-1.776
1772976334049.8997,-0.134,0.0167,-0.975,3.946,-6.51,-1.689
1772976334049.8997,-0.1357,0.0166,-0.9745,3.771,-6.545,-1.75
1772976334049.8997,-0.1348,0.0129,-0.9749,3.666,-6.44,-1.479
1772976334049.8997,-0.1336,0.017,-0.9744,3.911,-6.475,-1.627
1772976334049.8997,-0.1346,0.0171,-0.9773,3.911,-6.23,-1.619
1772976334049.8997,-0.1345,0.0165,-0.9751,3.763,-6.282,-1.837
1772976334049.8997,-0.1338,0.0182,-0.9769,3.824,-6.423,-1.802
1772976334049.8997,-0.1337,0.0188,-0.9753,3.85,-6.134,-1.715
1772976334065.3074,-0.1323,0.0179,-0.9803,3.719,-6.457,-1.864
1772976334065.3074,-0.1318,0.0203,-0.974,3.885,-6.353,-1.724
1772976334065.3074,-0.1348,0.019,-0.977,3.719,-6.729,-1.558
1772976334065.3074,-0.1347,0.0196,-0.976,3.675,-6.641,-1.671
1772976334065.3074,-0.1344,0.0205,-0.9776,3.631,-6.668,-1.706
1772976334065.3074,-0.1331,0.0209,-0.9773,3.509,-6.475,-1.724
1772976334065.3074,-0.1318,0.0203,-0.9792,3.596,-6.431,-1.715
1772976334065.3074,-0.1321,0.0204,-0.9763,3.579,-6.545,-1.776
1772976334065.3074,-0.1329,0.0198,-0.977,3.596,-6.388,-1.671
1772976334065.3074,-0.134,0.0214,-0.9775,3.491,-6.633,-1.724
1772976334065.3074,-0.1329,0.021,-0.9767,3.439,-6.685,-1.715
1772976334065.3074,-0.1322,0.0208,-0.9777,3.43,-6.58,-1.89
1772976334080.8206,-0.133,0.0223,-0.9781,3.579,-6.58,-1.671
1772976334080.8206,-0.1329,0.0216,-0.978,3.894,-6.571,-1.741
1772976334080.8206,-0.1337,0.0218,-0.979,3.859,-6.878,-1.82
1772976334080.8206,-0.1332,0.0212,-0.9787,3.92,-6.764,-1.61
1772976334080.8206,-0.1332,0.0239,-0.9784,3.859,-6.895,-1.82
1772976334080.8206,-0.1362,0.0237,-0.9825,3.719,-6.772,-1.68
1772976334080.8206,-0.133,0.0221,-0.9803,3.955,-6.702,-1.689
1772976334080.8206,-0.1344,0.0238,-0.9792,4.008,-6.851,-1.776
1772976334080.8206,-0.1344,0.0238,-0.9792,3.981,-6.772,-1.663
1772976334080.8206,-0.1332,0.0224,-0.9815,4.043,-6.825,-1.584
1772976334080.8206,-0.1342,0.0251,-0.9815,3.973,-6.781,-1.452
1772976334080.8206,-0.133,0.0218,-0.9778,4.104,-6.939,-1.663
1772976334080.8206,-0.1329,0.0239,-0.9798,4.077,-7.018,-1.689
1772976334096.7153,-0.1346,0.022,-0.9804,3.999,-7.289,-1.794
1772976334096.7153,-0.1361,0.0235,-0.9795,3.894,-7.088,-1.566
1772976334096.7153,-0.1368,0.0232,-0.98,3.981,-7.07,-1.514
1772976334096.7153,-0.1335,0.0235,-0.979,4.235,-7.175,-1.566
1772976334096.7153,-0.1344,0.022,-0.9798,3.964,-7.341,-1.715
1772976334096.7153,-0.1367,0.0223,-0.98,4.104,-7.394,-1.706
1772976334096.7153,-0.1358,0.0243,-0.9801,3.981,-7.096,-1.496
1772976334096.7153,-0.1351,0.0217,-0.9783,4.025,-7.053,-1.584
1772976334096.7153,-0.1328,0.021,-0.977,4.025,-7.315,-1.715
1772976334096.7153,-0.1363,0.0225,-0.9775,3.946,-7.114,-1.645
1772976334096.7153,-0.1347,0.0198,-0.9761,3.894,-7.07,-1.496
1772976334096.7153,-0.1366,0.0204,-0.9761,3.824,-6.86,-1.549
1772976334096.7153,-0.1358,0.02,-0.9754,3.859,-7.166,-1.417
1772976334112.0273,-0.1371,0.019,-0.9762,3.833,-7.271,-1.671
1772976334112.0273,-0.1355,0.0195,-0.9761,3.71,-7.236,-1.663
1772976334112.0273,-0.1371,0.0182,-0.9766,3.859,-7.149,-1.461
1772976334112.0273,-0.1366,0.0176,-0.9781,3.946,-7.122,-1.33
1772976334112.0273,-0.136,0.0168,-0.9749,3.754,-7.201,-1.356
1772976334112.0273,-0.1358,0.0182,-0.9739,3.797,-7.21,-1.33
1772976334112.0273,-0.135,0.0179,-0.9737,3.806,-7.026,-1.173
1772976334112.0273,-0.1363,0.0169,-0.9759,3.614,-6.982,-1.26
1772976334112.0273,-0.1343,0.018,-0.9728,3.797,-7.053,-1.435
1772976334112.0273,-0.1337,0.0175,-0.9725,3.964,-6.886,-1.339
1772976334112.0273,-0.138,0.0173,-0.9708,3.728,-6.86,-1.155
1772976334112.0273,-0.1381,0.017,-0.9709,3.728,-6.956,-1.33
1772976334127.643,-0.1386,0.0156,-0.9722,3.684,-6.956,-1.33
1772976334127.643,-0.1364,0.0183,-0.9729,3.439,-6.816,-1.365
1772976334127.643,-0.1379,0.0159,-0.9706,3.579,-6.694,-1.286
1772976334127.643,-0.1381,0.0167,-0.9706,3.745,-6.571,-1.33
1772976334127.643,-0.1394,0.0145,-0.9719,3.675,-6.492,-1.208
1772976334127.643,-0.1385,0.0162,-0.9732,3.701,-6.484,-1.19
1772976334127.643,-0.1385,0.0149,-0.9682,3.763,-6.729,-1.304
1772976334127.643,-0.1396,0.0163,-0.9697,3.553,-6.641,-1.225
1772976334127.643,-0.1365,0.0156,-0.9711,3.561,-6.247,-1.444
1772976334127.643,-0.139,0.0135,-0.9711,3.43,-6.344,-1.435
1772976334127.643,-0.1368,0.0151,-0.969,3.43,-6.326,-1.208
1772976334127.643,-0.1385,0.0157,-0.9701,3.587,-6.353,-1.146
1772976334127.643,-0.1392,0.0159,-0.9674,3.649,-6.221,-1.347
1772976334143.0247,-0.1376,0.016,-0.9693,3.736,-6.186,-1.488
1772976334143.0247,-0.1376,0.0131,-0.9701,3.614,-6.143,-1.094
1772976334143.0247,-0.1373,0.0149,-0.9683,3.465,-6.274,-1.321
1772976334143.0247,-0.1376,0.0156,-0.9717,3.596,-6.143,-1.391
1772976334143.0247,-0.1388,0.0131,-0.9722,3.386,-6.02,-1.496
1772976334143.0247,-0.1387,0.0149,-0.9687,3.264,-6.151,-1.216
1772976334143.0247,-0.139,0.0148,-0.9671,3.395,-6.055,-1.4
1772976334143.0247,-0.1371,0.0115,-0.9682,3.509,-6.107,-1.365
1772976334143.0247,-0.1379,0.0134,-0.9687,3.5,-6.134,-1.234
1772976334143.0247,-0.1387,0.0107,-0.9667,3.369,-6.107,-1.208
1772976334143.0247,-0.1381,0.0112,-0.9675,3.36,-5.941,-1.321
1772976334143.0247,-0.1373,0.0133,-0.9689,3.342,-6.064,-1.488
1772976334158.2131,-0.1401,0.0107,-0.9687,3.045,-6.064,-1.619
1772976334158.2131,-0.1396,0.0131,-0.9683,3.272,-5.871,-1.321
1772976334158.2131,-0.139,0.0117,-0.9715,3.395,-5.994,-1.33
1772976334158.2131,-0.1375,0.0117,-0.9689,3.386,-5.889,-1.488
1772976334158.2131,-0.1388,0.0109,-0.967,3.369,-5.933,-1.732
1772976334158.2131,-0.1393,0.011,-0.969,3.15,-5.889,-1.522
1772976334158.2131,-0.1391,0.0108,-0.9708,2.958,-6.143,-1.671
1772976334158.2131,-0.138,0.0113,-0.969,2.984,-6.055,-1.461
1772976334158.2131,-0.1382,0.0089,-0.9705,2.817,-6.003,-1.409
1772976334158.2131,-0.1412,0.0111,-0.9687,2.783,-5.933,-1.452
1772976334158.2131,-0.1382,0.0113,-0.9685,2.861,-5.95,-1.479
1772976334158.2131,-0.1369,0.0124,-0.9709,3.01,-6.274,-1.619
1772976334173.8547,-0.1354,0.0118,-0.9716,3.01,-6.247,-1.671
1772976334173.8547,-0.1376,0.0119,-0.9701,2.8,-6.09,-1.645
1772976334173.8547,-0.1368,0.0117,-0.9715,2.564,-6.055,-1.619
1772976334173.8547,-0.1407,0.0109,-0.9698,2.712,-6.247,-1.776
1772976334173.8547,-0.1375,0.0119,-0.9695,2.756,-6.247,-1.759
1772976334173.8547,-0.139,0.0105,-0.9675,2.397,-6.309,-1.575
1772976334173.8547,-0.1374,0.0099,-0.9727,2.433,-6.309,-1.671
1772976334173.8547,-0.1376,0.0132,-0.9707,2.59,-6.405,-1.689
1772976334173.8547,-0.141,0.011,-0.9719,2.73,-6.659,-1.636
1772976334173.8547,-0.1394,0.011,-0.97,2.581,-6.431,-1.794
1772976334173.8547,-0.1382,0.0093,-0.9708,2.511,-6.3,-1.645
1772976334173.8547,-0.139,0.0101,-0.97,2.459,-6.606,-1.759
1772976334173.8547,-0.1394,0.0127,-0.9715,2.459,-6.825,-1.671
1772976334189.0718,-0.1382,0.0115,-0.9705,2.424,-6.633,-1.68
1772976334189.0718,-0.1368,0.0121,-0.9719,2.389,-6.545,-1.636
1772976334189.0718,-0.1363,0.0125,-0.969,2.371,-6.825,-1.654
1772976334189.0718,-0.1362,0.0127,-0.9736,2.328,-6.685,-1.645
1772976334189.0718,-0.1391,0.0136,-0.9689,2.249,-6.606,-1.706
1772976334189.0718,-0.1368,0.0101,-0.9701,2.03,-6.799,-1.706
1772976334189.0718,-0.1374,0.0119,-0.9723,2.1,-6.746,-1.934
1772976334189.0718,-0.1381,0.0154,-0.9726,1.986,-6.895,-1.846
1772976334189.0718,-0.1382,0.0117,-0.9721,1.907,-6.93,-1.829
1772976334189.0718,-0.1391,0.0134,-0.9732,2.118,-6.834,-1.505
1772976334189.0718,-0.1354,0.0154,-0.9723,2.205,-7.026,-1.522
1772976334189.0718,-0.1399,0.014,-0.972,2.1,-7.157,-1.706
1772976334204.7798,-0.1391,0.0154,-0.9698,1.829,-6.974,-1.794
1772976334204.7798,-0.1373,0.014,-0.9728,1.715,-6.843,-1.636
1772976334204.7798,-0.1372,0.014,-0.9719,1.671,-7.044,-1.794
1772976334204.7798,-0.1362,0.0155,-0.9719,1.671,-7.044,-1.82
1772976334204.7798,-0.1376,0.0145,-0.9722,1.951,-7.035,-1.768
1772976334204.7798,-0.1362,0.0148,-0.9705,1.785,-7.053,-1.654
1772976334204.7798,-0.138,0.0146,-0.9696,1.724,-6.869,-1.558
1772976334204.7798,-0.1385,0.015,-0.9726,1.776,-6.912,-1.663
1772976334204.7798,-0.1384,0.0162,-0.9729,1.689,-6.921,-1.768
1772976334204.7798,-0.1354,0.0162,-0.9706,1.593,-7.157,-1.75
1772976334204.7798,-0.1362,0.0146,-0.972,1.689,-7.105,-1.776
1772976334204.7798,-0.1367,0.0167,-0.9706,1.706,-6.974,-1.916
1772976334204.7798,-0.1371,0.0157,-0.9719,1.759,-7.438,-1.881
1772976334220.7595,-0.1392,0.017,-0.9742,1.566,-7.184,-1.907
1772976334220.7595,-0.1382,0.0171,-0.972,1.496,-7.105,-2.021
1772976334220.7595,-0.138,0.0142,-0.973,1.391,-7.166,-1.785
1772976334220.7595,-0.1389,0.0179,-0.9699,1.514,-7.306,-1.627
1772976334220.7595,-0.1366,0.0154,-0.9722,1.531,-7.332,-1.768
1772976334220.7595,-0.1352,0.0157,-0.9731,1.444,-7.044,-1.741
1772976334220.7595,-0.1395,0.0162,-0.9711,1.47,-7.131,-1.934
1772976334220.7595,-0.1376,0.0183,-0.9725,1.444,-7.149,-1.829
1772976334220.7595,-0.1368,0.0183,-0.9704,1.33,-7.122,-1.654
1772976334220.7595,-0.1379,0.017,-0.9712,1.33,-7.079,-1.61
1772976334220.7595,-0.139,0.0187,-0.9747,1.566,-7.332,-1.837
1772976334220.7595,-0.14,0.0182,-0.9731,1.619,-7.464,-1.96
1772976334220.7595,-0.1405,0.0172,-0.9695,1.566,-7.341,-1.881
1772976334236.1833,-0.1386,0.0165,-0.9717,1.531,-7.088,-1.549
1772976334236.1833,-0.138,0.0187,-0.9727,1.584,-6.939,-1.724
1772976334236.1833,-0.141,0.0155,-0.9713,1.558,-6.93,-1.724
1772976334236.1833,-0.1388,0.0176,-0.9732,1.811,-7.035,-1.873
1772976334236.1833,-0.1376,0.0162,-0.9728,1.785,-7.035,-1.855
1772976334236.1833,-0.1394,0.0183,-0.9739,1.514,-7.044,-1.846
1772976334236.1833,-0.1383,0.0178,-0.9709,1.558,-6.878,-1.706
1772976334236.1833,-0.1398,0.0157,-0.9698,1.785,-6.912,-1.627
1772976334236.1833,-0.1393,0.0169,-0.9703,1.995,-7.0,-1.601
1772976334236.1833,-0.1399,0.0182,-0.9717,1.907,-6.982,-1.522
1772976334236.1833,-0.1384,0.0181,-0.9737,1.969,-6.974,-1.522
1772976334236.1833,-0.1397,0.0193,-0.9705,2.284,-7.061,-1.461
1772976334236.1833,-0.1384,0.0193,-0.9729,1.995,-6.711,-1.522
1772976334251.1511,-0.1402,0.0181,-0.9723,2.135,-6.676,-1.671
1772976334251.1511,-0.1388,0.0177,-0.9704,2.091,-7.061,-1.575
1772976334251.1511,-0.1392,0.0165,-0.9703,2.152,-7.07,-1.584
1772976334251.1511,-0.1397,0.0162,-0.9717,2.24,-6.781,-1.706
1772976334251.1511,-0.1389,0.0199,-0.9699,2.415,-6.834,-1.505
1772976334251.1511,-0.1395,0.0172,-0.9716,2.249,-6.965,-1.601
1772976334251.1511,-0.1399,0.0142,-0.9704,2.581,-6.921,-1.549
1772976334251.1511,-0.1403,0.0174,-0.9724,2.511,-6.449,-1.794
1772976334251.1511,-0.1402,0.0175,-0.9705,2.494,-6.659,-1.776
1772976334251.1511,-0.142,0.0173,-0.972,2.52,-6.825,-1.505
1772976334251.1511,-0.1405,0.0164,-0.973,2.502,-6.554,-1.601
1772976334251.1511,-0.1407,0.0168,-0.9712,2.511,-6.694,-1.286
1772976334266.863,-0.1385,0.0152,-0.9721,2.555,-6.685,-1.461
1772976334266.863,-0.1408,0.0164,-0.9728,2.686,-6.729,-1.514
1772976334266.863,-0.139,0.0166,-0.9738,2.538,-6.851,-1.522
1772976334266.863,-0.1409,0.0168,-0.9712,2.52,-6.571,-1.593
1772976334266.863,-0.1402,0.0159,-0.9713,2.607,-6.869,-1.461
1772976334266.863,-0.1424,0.0179,-0.9743,2.546,-6.799,-1.391
1772976334266.863,-0.1374,0.016,-0.9749,2.704,-6.886,-1.417
1772976334266.863,-0.1411,0.0169,-0.9743,2.765,-6.702,-1.531
1772976334266.863,-0.1408,0.0161,-0.9729,2.765,-6.668,-1.26
1772976334266.863,-0.1423,0.0178,-0.9744,2.581,-6.519,-1.181
1772976334266.863,-0.1404,0.0164,-0.9731,2.835,-6.571,-1.383
1772976334266.863,-0.1404,0.0148,-0.9732,2.599,-6.772,-1.566
1772976334266.863,-0.1375,0.0185,-0.9721,2.546,-6.685,-1.4
1772976334282.7654,-0.1434,0.017,-0.9709,2.485,-6.912,-1.584
1772976334282.7654,-0.1398,0.0156,-0.9715,2.564,-6.772,-1.558
1772976334282.7654,-0.1388,0.017,-0.972,2.712,-6.729,-1.566
1772976334282.7654,-0.1413,0.0154,-0.9728,2.686,-6.659,-1.417
1772976334282.7654,-0.1413,0.0146,-0.9737,2.581,-6.466,-1.426
1772976334282.7654,-0.1401,0.0164,-0.9738,2.678,-6.772,-1.593
1772976334282.7654,-0.1401,0.0143,-0.9728,2.625,-6.869,-1.295
1772976334282.7654,-0.1399,0.0163,-0.9732,2.529,-6.781,-1.479
1772976334282.7654,-0.1415,0.0173,-0.9723,2.433,-6.729,-1.496
1772976334282.7654,-0.1412,0.0156,-0.9732,2.389,-6.764,-1.514
1772976334282.7654,-0.139,0.0162,-0.9733,2.467,-6.991,-1.645
1772976334282.7654,-0.1397,0.0163,-0.9722,2.45,-6.764,-1.496
1772976334282.7654,-0.14,0.0169,-0.9755,2.328,-6.939,-1.689
1772976334298.4033,-0.1373,0.0159,-0.9738,2.59,-6.781,-1.663
1772976334298.4033,-0.1419,0.0169,-0.9748,2.459,-6.956,-1.864
1772976334298.4033,-0.1402,0.0166,-0.9735,2.415,-7.228,-1.645
1772976334298.4033,-0.1416,0.0168,-0.9756,2.433,-6.825,-1.549
1772976334298.4033,-0.1391,0.0155,-0.9744,2.511,-6.799,-1.706
1772976334298.4033,-0.1399,0.0172,-0.9747,2.529,-7.184,-1.496
1772976334298.4033,-0.1406,0.0167,-0.9756,2.441,-7.35,-1.829
1772976334298.4033,-0.1385,0.016,-0.9744,2.371,-7.175,-1.68
1772976334298.4033,-0.1398,0.016,-0.9749,2.415,-7.044,-1.671
1772976334298.4033,-0.1396,0.016,-0.9747,2.196,-7.0,-1.68
1772976334298.4033,-0.1387,0.0179,-0.9738,2.214,-7.263,-1.627
1772976334298.4033,-0.1369,0.0172,-0.975,2.17,-7.332,-1.522
1772976334313.4712,-0.1385,0.0156,-0.9721,2.362,-7.271,-1.531
1772976334313.4712,-0.1394,0.0178,-0.9745,2.607,-7.263,-1.593
1772976334313.4712,-0.1389,0.0174,-0.9726,2.389,-7.394,-1.496
1772976334313.4712,-0.1405,0.0159,-0.9742,2.328,-7.385,-1.855
1772976334313.4712,-0.1414,0.014,-0.9733,2.406,-7.324,-1.724
1772976334313.4712,-0.1394,0.0157,-0.9743,2.345,-7.298,-1.645
1772976334313.4712,-0.139,0.0192,-0.9748,2.362,-7.56,-1.802
1772976334313.4712,-0.1405,0.0153,-0.9749,2.284,-7.49,-1.776
1772976334313.4712,-0.1404,0.0171,-0.9747,2.494,-7.192,-1.794
1772976334313.4712,-0.1413,0.0175,-0.9736,2.441,-7.236,-1.645
1772976334313.4712,-0.1391,0.0176,-0.976,2.502,-7.446,-1.698
1772976334313.4712,-0.1391,0.0172,-0.9742,2.397,-7.551,-1.584
1772976334328.7756,-0.1401,0.017,-0.9745,2.371,-7.499,-1.549
1772976334328.7756,-0.1396,0.0168,-0.9728,2.511,-7.499,-1.829
1772976334328.7756,-0.1387,0.0182,-0.9745,2.546,-7.621,-1.75
1772976334328.7756,-0.1383,0.0168,-0.9729,2.538,-7.49,-1.671
1772976334328.7756,-0.1402,0.0177,-0.974,2.739,-7.656,-1.837
1772976334328.7756,-0.141,0.0179,-0.9736,2.634,-7.324,-1.75
1772976334328.7756,-0.1397,0.0167,-0.9723,2.362,-7.455,-1.619
1772976334328.7756,-0.1406,0.0195,-0.9749,2.625,-7.464,-1.689
1772976334328.7756,-0.1406,0.0187,-0.9747,2.581,-7.429,-1.566
1772976334328.7756,-0.1409,0.0201,-0.971,2.538,-7.516,-1.759
1772976334328.7756,-0.1415,0.0176,-0.9722,2.66,-7.464,-1.505
1772976334328.7756,-0.139,0.018,-0.9737,2.835,-7.298,-1.347
1772976334328.7756,-0.1397,0.0191,-0.9728,2.538,-7.184,-1.356
1772976334344.6284,-0.1415,0.0175,-0.9714,2.599,-7.411,-1.522
1772976334344.6284,-0.1412,0.0194,-0.9723,2.678,-7.455,-1.68
1772976334344.6284,-0.1413,0.0178,-0.9725,2.739,-7.385,-1.768
1772976334344.6284,-0.1423,0.0196,-0.9733,2.634,-7.359,-1.61
1772976334344.6284,-0.1415,0.0198,-0.9704,2.669,-7.367,-1.698
1772976334344.6284,-0.1417,0.0192,-0.9703,2.538,-7.332,-1.505
1772976334344.6284,-0.1417,0.0185,-0.9691,2.66,-7.079,-1.925
1772976334344.6284,-0.1421,0.0183,-0.9734,2.835,-7.586,-1.645
1772976334344.6284,-0.1401,0.0192,-0.9714,2.739,-7.446,-1.645
1772976334344.6284,-0.1413,0.0196,-0.9689,2.756,-7.455,-1.654
1772976334344.6284,-0.1407,0.0187,-0.9706,2.844,-7.131,-1.698
1772976334344.6284,-0.1421,0.0181,-0.9707,2.756,-7.175,-1.715
1772976334344.6284,-0.1413,0.0212,-0.9712,2.87,-7.341,-1.566
1772976334360.9517,-0.142,0.0178,-0.9705,3.001,-7.236,-1.671
1772976334360.9517,-0.1418,0.0192,-0.9697,2.896,-7.14,-1.444
1772976334360.9517,-0.1417,0.0201,-0.9726,2.905,-7.105,-1.619
1772976334360.9517,-0.1415,0.0195,-0.9706,2.879,-7.061,-1.593
1772976334360.9517,-0.1419,0.0206,-0.9684,2.993,-7.324,-1.514
1772976334360.9517,-0.1405,0.0186,-0.9694,3.089,-7.376,-1.724
1772976334360.9517,-0.1441,0.018,-0.9714,2.993,-6.799,-1.671
1772976334360.9517,-0.1427,0.0214,-0.9709,3.176,-6.982,-1.488
1772976334360.9517,-0.1426,0.0185,-0.9683,3.036,-7.079,-1.426
1772976334360.9517,-0.1432,0.0193,-0.9697,2.931,-7.0,-1.794
1772976334360.9517,-0.1426,0.0202,-0.9694,2.931,-7.009,-1.698
1772976334360.9517,-0.1421,0.02,-0.9679,2.984,-7.035,-1.636
1772976334360.9517,-0.1431,0.022,-0.9701,3.115,-6.86,-1.444
1772976334376.4392,-0.1418,0.0215,-0.9688,3.264,-6.834,-1.461
1772976334376.4392,-0.1442,0.021,-0.9689,3.316,-6.965,-1.488
1772976334376.4392,-0.1429,0.0215,-0.9715,3.194,-6.755,-1.54
1772976334376.4392,-0.1434,0.0208,-0.9687,3.159,-6.991,-1.514
1772976334376.4392,-0.1432,0.0218,-0.9705,3.246,-6.947,-1.531
1772976334376.4392,-0.1423,0.02,-0.9692,3.001,-6.781,-1.514
1772976334376.4392,-0.1426,0.0191,-0.9709,3.237,-6.624,-1.531
1772976334376.4392,-0.1436,0.0206,-0.9713,3.281,-6.711,-1.522
1772976334376.4392,-0.1443,0.0197,-0.9701,3.351,-6.737,-1.531
1772976334376.4392,-0.1428,0.0229,-0.9714,3.237,-6.466,-1.82
1772976334376.4392,-0.1443,0.0212,-0.9704,3.334,-6.475,-1.619
1772976334376.4392,-0.1448,0.0215,-0.969,3.474,-6.755,-1.593
1772976334391.585,-0.1437,0.0207,-0.9692,3.465,-6.685,-1.61
1772976334391.585,-0.1427,0.0208,-0.9706,3.395,-6.694,-1.698
1772976334391.585,-0.1423,0.0194,-0.9708,3.386,-6.843,-1.724
1772976334391.585,-0.1402,0.0218,-0.9701,3.299,-6.615,-1.531
1772976334391.585,-0.14,0.0207,-0.9695,3.29,-6.799,-1.479
1772976334391.585,-0.1423,0.0201,-0.9698,3.351,-6.405,-1.593
1772976334391.585,-0.1424,0.0199,-0.9681,3.544,-6.624,-1.768
1772976334391.585,-0.1441,0.0205,-0.9689,3.526,-6.423,-1.558
1772976334391.585,-0.144,0.0193,-0.9686,3.308,-6.834,-1.522
1772976334391.585,-0.1421,0.0193,-0.9704,3.474,-6.799,-1.4
1772976334391.585,-0.1426,0.0188,-0.971,3.692,-6.737,-1.505
1772976334391.585,-0.1428,0.0216,-0.9711,3.395,-6.449,-1.409
1772976334391.585,-0.1426,0.0193,-0.9694,3.491,-6.554,-1.479
1772976334407.5496,-0.1434,0.0212,-0.9703,3.465,-6.527,-1.505
1772976334407.5496,-0.1434,0.0181,-0.9684,3.623,-6.554,-1.444
1772976334407.5496,-0.1421,0.0198,-0.971,3.386,-7.035,-1.417
1772976334407.5496,-0.143,0.0187,-0.9694,3.141,-6.72,-1.312
1772976334407.5496,-0.1409,0.0174,-0.9711,3.299,-6.571,-1.601
1772976334407.5496,-0.1414,0.0191,-0.9704,3.474,-6.379,-1.435
1772976334407.5496,-0.142,0.0183,-0.9709,3.518,-6.615,-1.278
1772976334407.5496,-0.1423,0.0176,-0.9708,3.482,-6.624,-1.584
1772976334407.5496,-0.1426,0.0171,-0.9701,3.395,-6.65,-1.706
1772976334407.5496,-0.1413,0.0165,-0.9708,3.395,-6.624,-1.768
1772976334407.5496,-0.1416,0.0151,-0.9719,3.587,-6.58,-1.593
1772976334407.5496,-0.142,0.0176,-0.9747,3.447,-6.772,-1.435
1772976334407.5496,-0.1435,0.0174,-0.9717,3.203,-6.72,-1.522
1772976334423.268,-0.1435,0.0158,-0.9706,3.211,-6.659,-1.636
1772976334423.268,-0.1442,0.0152,-0.9737,3.413,-6.729,-1.409
1772976334423.268,-0.1414,0.0163,-0.9689,3.482,-6.598,-1.689
1772976334423.268,-0.1415,0.0146,-0.9709,3.491,-6.746,-1.505
1772976334423.268,-0.1427,0.0156,-0.9735,3.43,-6.694,-1.627
1772976334423.268,-0.1442,0.0166,-0.9698,3.605,-6.457,-1.391
1772976334423.268,-0.1408,0.0162,-0.9722,3.43,-6.51,-1.461
1772976334423.268,-0.1427,0.0155,-0.9696,3.29,-6.825,-1.558
1772976334423.268,-0.1404,0.0156,-0.9715,3.369,-7.018,-1.383
1772976334423.268,-0.1437,0.0163,-0.9724,3.237,-6.921,-1.383
1772976334423.268,-0.1413,0.0169,-0.9709,3.237,-6.65,-1.558
1772976334423.268,-0.1414,0.016,-0.9697,3.237,-6.702,-1.522
1772976334438.8928,-0.1446,0.0145,-0.972,3.351,-6.904,-1.522
1772976334438.8928,-0.1419,0.0165,-0.9686,3.132,-6.886,-1.278
1772976334438.8928,-0.1432,0.0152,-0.9719,3.15,-6.991,-1.549
1772976334438.8928,-0.1426,0.0156,-0.9704,3.386,-6.991,-1.671
1772976334438.8928,-0.1443,0.0172,-0.9727,3.255,-6.668,-1.426
1772976334438.8928,-0.1437,0.0146,-0.9717,3.229,-6.79,-1.435
1772976334438.8928,-0.1446,0.0137,-0.9728,3.29,-6.79,-1.426
1772976334438.8928,-0.1408,0.0133,-0.9694,3.08,-6.991,-1.417
1772976334438.8928,-0.1408,0.0171,-0.9711,3.211,-6.869,-1.409
1772976334438.8928,-0.1419,0.0142,-0.9688,3.229,-6.843,-1.26
1772976334438.8928,-0.1414,0.0161,-0.9711,3.29,-6.878,-1.242
1772976334438.8928,-0.1433,0.0157,-0.9714,3.316,-7.061,-1.452
1772976334438.8928,-0.1438,0.0155,-0.9712,3.264,-6.974,-1.242
1772976334454.1138,-0.1432,0.014,-0.9712,3.15,-6.982,-1.33
1772976334454.1138,-0.1452,0.0149,-0.9712,3.194,-6.93,-1.619
1772976334454.1138,-0.1435,0.0166,-0.9725,2.922,-6.825,-1.242
1772976334454.1138,-0.1451,0.0143,-0.9728,3.194,-6.799,-1.444
1772976334454.1138,-0.143,0.0148,-0.9712,3.019,-7.026,-1.417
1772976334454.1138,-0.1426,0.0152,-0.9711,3.089,-7.219,-1.286
1772976334454.1138,-0.144,0.0157,-0.9723,3.01,-6.886,-1.479
1772976334454.1138,-0.143,0.0148,-0.9715,2.879,-6.834,-1.417
1772976334454.1138,-0.1444,0.0158,-0.9714,2.896,-6.781,-1.566
1772976334454.1138,-0.1436,0.0154,-0.9701,2.739,-7.096,-1.505
1772976334454.1138,-0.1436,0.0158,-0.969,2.931,-7.053,-1.479
1772976334454.1138,-0.1423,0.0164,-0.9714,2.879,-6.878,-1.4
1772976334469.4185,-0.1439,0.0139,-0.973,2.94,-6.965,-1.05
1772976334469.4185,-0.1448,0.0162,-0.9715,2.975,-7.096,-1.339
1772976334469.4185,-0.1439,0.0168,-0.971,2.817,-7.254,-1.575
1772976334469.4185,-0.1441,0.0176,-0.9706,2.853,-7.245,-1.741
1772976334469.4185,-0.1455,0.0168,-0.9726,2.853,-7.061,-1.566
1772976334469.4185,-0.1451,0.0157,-0.9727,2.669,-7.14,-1.558
1772976334469.4185,-0.1451,0.0157,-0.974,2.529,-7.096,-1.54
1772976334469.4185,-0.1432,0.0168,-0.9715,2.783,-7.315,-1.391
1772976334469.4185,-0.1444,0.0153,-0.9734,2.739,-7.289,-1.479
1772976334469.4185,-0.1459,0.0159,-0.9748,2.712,-7.157,-1.4
1772976334469.4185,-0.1446,0.0162,-0.9748,2.712,-7.219,-1.566
1772976334469.4185,-0.1434,0.0166,-0.9733,2.66,-7.324,-1.33
1772976334469.4185,-0.1447,0.0177,-0.9722,2.669,-7.446,-1.4
1772976334485.1606,-0.1452,0.0176,-0.9739,2.494,-7.219,-1.61
1772976334485.1606,-0.1435,0.0179,-0.9739,2.529,-7.245,-1.47
1772976334485.1606,-0.1434,0.0161,-0.9738,2.476,-7.35,-1.61
1772976334485.1606,-0.1432,0.0159,-0.9727,2.52,-7.551,-1.549
1772976334485.1606,-0.146,0.0176,-0.9725,2.686,-7.376,-1.593
1772976334485.1606,-0.1472,0.0177,-0.9717,2.616,-7.298,-1.794
1772976334485.1606,-0.1453,0.0177,-0.9746,2.485,-7.201,-1.802
1772976334485.1606,-0.1436,0.0178,-0.9722,2.616,-7.481,-1.732
1772976334485.1606,-0.1448,0.0179,-0.9722,2.678,-7.254,-1.706
1772976334485.1606,-0.1452,0.0163,-0.9755,2.643,-7.543,-1.522
1772976334485.1606,-0.1447,0.0179,-0.9731,2.485,-7.569,-1.514
1772976334485.1606,-0.1461,0.016,-0.9736,2.467,-7.595,-1.593
1772976334485.1606,-0.1463,0.0168,-0.9743,2.511,-7.639,-1.663
1772976334501.2139,-0.1444,0.0173,-0.9714,2.31,-7.56,-1.636
1772976334501.2139,-0.1469,0.0166,-0.9708,2.275,-7.621,-1.776
1772976334501.2139,-0.1462,0.0171,-0.9731,2.389,-7.508,-1.514
1772976334501.2139,-0.1462,0.0146,-0.9726,2.467,-7.726,-1.505
1772976334501.2139,-0.1447,0.0152,-0.9717,2.144,-7.516,-1.531
1772976334501.2139,-0.144,0.0181,-0.971,2.152,-7.525,-1.689
1772976334501.2139,-0.1454,0.0149,-0.9693,2.152,-7.49,-1.75
1772976334501.2139,-0.1484,0.0157,-0.9699,2.118,-7.569,-1.785
1772976334501.2139,-0.1463,0.0171,-0.9709,1.89,-7.586,-1.873
1772976334501.2139,-0.1465,0.0167,-0.971,1.706,-7.402,-1.881
1772976334501.2139,-0.1469,0.0162,-0.9679,1.942,-7.289,-1.715
1772976334501.2139,-0.146,0.0163,-0.9684,1.785,-7.114,-1.785
1772976334501.2139,-0.1444,0.0155,-0.9672,1.663,-7.236,-1.654
1772976334516.4067,-0.1453,0.0174,-0.9688,1.846,-7.245,-1.496
1772976334516.4067,-0.1451,0.0171,-0.9666,1.802,-6.755,-1.391
1772976334516.4067,-0.1477,0.0177,-0.966,1.444,-6.685,-1.479
1772976334516.4067,-0.1474,0.0172,-0.9649,1.461,-6.694,-1.426
1772976334516.4067,-0.1487,0.0149,-0.9647,1.452,-6.633,-1.601
1772976334516.4067,-0.1477,0.0165,-0.9662,1.663,-6.702,-1.479
1772976334516.4067,-0.1498,0.0164,-0.9629,1.522,-6.414,-1.54
1772976334516.4067,-0.1502,0.0159,-0.9636,1.601,-6.423,-1.522
1772976334516.4067,-0.148,0.0172,-0.9664,1.514,-6.265,-1.575
1772976334516.4067,-0.1467,0.0155,-0.9659,1.383,-6.125,-1.663
1772976334516.4067,-0.1478,0.0178,-0.9642,1.321,-5.976,-1.391
1772976334516.4067,-0.146,0.0171,-0.9651,1.321,-6.072,-1.251
1772976334532.023,-0.1488,0.0173,-0.9673,1.444,-6.125,-1.522
1772976334532.023,-0.149,0.0155,-0.9655,1.435,-5.959,-1.558
1772976334532.023,-0.1472,0.0165,-0.964,1.304,-5.775,-1.575
1772976334532.023,-0.1474,0.0198,-0.9647,1.566,-5.539,-1.689
1772976334532.023,-0.146,0.0189,-0.9661,1.531,-5.644,-1.54
1772976334532.023,-0.1484,0.0152,-0.9665,1.496,-5.442,-1.724
1772976334532.023,-0.1471,0.0184,-0.9682,1.558,-5.626,-1.479
1772976334532.023,-0.1469,0.0174,-0.9657,1.627,-5.416,-1.347
1772976334532.023,-0.1469,0.0189,-0.9683,1.768,-5.591,-1.496
1772976334532.023,-0.1457,0.0193,-0.9686,1.829,-5.346,-1.505
1772976334532.023,-0.1451,0.0183,-0.9694,1.689,-5.136,-1.54
1772976334532.023,-0.1462,0.017,-0.971,1.75,-5.276,-1.321
1772976334548.1821,-0.1488,0.0181,-0.9711,1.916,-5.285,-1.295
1772976334548.1821,-0.1451,0.017,-0.9715,1.864,-5.329,-1.383
1772976334548.1821,-0.148,0.0199,-0.9707,1.881,-5.819,-1.435
1772976334548.1821,-0.1451,0.0204,-0.9703,2.047,-5.478,-1.461
1772976334548.1821,-0.1469,0.0209,-0.9719,2.397,-5.364,-1.286
1772976334548.1821,-0.1477,0.0203,-0.9749,2.389,-5.46,-1.251
1772976334548.1821,-0.1473,0.0189,-0.9751,2.336,-5.582,-1.391
