Time_ms,ax,ay,az,gx,gy,gz
1772932309085.9287,-0.1258,-0.4222,-0.8924,1.103,-3.395,-2.205
1772932309085.9287,-0.1238,-0.42,-0.8921,1.19,-3.351,-1.907
1772932309085.9287,-0.129,-0.4098,-0.8903,1.505,-3.413,-1.925
1772932309101.9731,-0.1322,-0.4114,-0.8884,1.741,-4.086,-2.188
1772932309101.9731,-0.129,-0.4116,-0.8844,1.444,-4.121,-2.555
1772932309101.9731,-0.1262,-0.4125,-0.8869,1.558,-4.139,-2.826
1772932309101.9731,-0.1271,-0.4141,-0.8827,1.531,-4.008,-3.071
1772932309118.0908,-0.1286,-0.4114,-0.8843,1.811,-4.287,-2.52
1772932309118.0908,-0.1297,-0.4111,-0.8872,1.916,-4.62,-2.389
1772932309118.0908,-0.1263,-0.4149,-0.884,2.389,-4.935,-2.17
1772932309133.673,-0.1268,-0.4155,-0.8856,2.161,-5.25,-1.96
1772932309133.673,-0.1241,-0.4152,-0.8835,2.214,-5.539,-1.785
1772932309133.673,-0.126,-0.4194,-0.883,2.319,-5.355,-1.881
1772932309133.673,-0.1254,-0.4182,-0.8862,2.336,-5.635,-2.24
1772932309133.673,-0.1313,-0.4176,-0.8874,2.406,-5.6,-2.643
1772932309148.815,-0.1325,-0.4164,-0.8835,2.826,-6.072,-2.599
1772932309148.815,-0.1333,-0.42,-0.8863,3.098,-6.16,-2.809
1772932309148.815,-0.1344,-0.4219,-0.8841,3.421,-6.116,-2.87
1772932309148.815,-0.1363,-0.4243,-0.8849,3.876,-6.396,-2.502
1772932309164.8591,-0.136,-0.4255,-0.8851,3.78,-6.353,-2.319
1772932309164.8591,-0.1331,-0.4259,-0.8849,3.658,-6.055,-2.039
1772932309164.8591,-0.1352,-0.4268,-0.8848,3.491,-6.02,-1.75
1772932309164.8591,-0.1342,-0.4259,-0.8843,3.141,-5.871,-1.636
1772932309180.4084,-0.1373,-0.4257,-0.8852,3.141,-6.204,-1.435
1772932309180.4084,-0.137,-0.4255,-0.8825,3.132,-6.204,-1.216
1772932309180.4084,-0.1368,-0.4252,-0.8814,2.765,-6.072,-1.304
1772932309180.4084,-0.133,-0.4217,-0.8808,2.774,-6.116,-0.954
1772932309195.943,-0.1314,-0.4217,-0.879,2.511,-6.326,-1.26
1772932309195.943,-0.131,-0.425,-0.8752,2.59,-6.65,-1.085
1772932309195.943,-0.1295,-0.4238,-0.8719,2.415,-6.256,-1.155
1772932309211.5183,-0.1271,-0.4244,-0.8711,2.249,-6.37,-1.312
1772932309211.5183,-0.1252,-0.4277,-0.8678,1.925,-6.519,-1.636
1772932309211.5183,-0.1272,-0.425,-0.8685,1.829,-6.449,-1.776
1772932309211.5183,-0.1285,-0.4243,-0.8646,2.083,-6.519,-1.837
1772932309227.123,-0.126,-0.4263,-0.8639,1.881,-6.466,-1.82
1772932309227.123,-0.1252,-0.4269,-0.8636,1.907,-6.353,-1.925
1772932309227.123,-0.1224,-0.4278,-0.8611,2.109,-6.239,-1.566
1772932309227.123,-0.1196,-0.4296,-0.863,1.969,-6.099,-1.558
1772932309227.123,-0.1183,-0.4255,-0.8653,1.873,-5.871,-1.365
1772932309242.6873,-0.119,-0.4261,-0.8649,1.969,-5.793,-1.452
1772932309242.6873,-0.1177,-0.4241,-0.8641,1.654,-5.74,-1.067
1772932309242.6873,-0.117,-0.4252,-0.8614,1.636,-5.486,-0.919
1772932309242.6873,-0.1172,-0.4244,-0.8665,1.899,-5.845,-1.024
1772932309257.735,-0.1172,-0.4262,-0.8665,1.584,-5.854,-1.33
1772932309257.735,-0.117,-0.4225,-0.8643,1.741,-5.294,-1.269
1772932309257.735,-0.1196,-0.4218,-0.865,1.829,-5.688,-1.636
1772932309257.735,-0.1206,-0.425,-0.8652,2.004,-5.372,-1.435
1772932309273.1099,-0.1214,-0.4227,-0.866,2.152,-5.093,-1.619
1772932309273.1099,-0.1232,-0.4213,-0.8663,1.96,-5.197,-1.82
1772932309273.1099,-0.124,-0.4216,-0.8701,1.986,-5.32,-1.654
1772932309289.0913,-0.1301,-0.4213,-0.8711,2.039,-5.031,-1.409
1772932309289.0913,-0.132,-0.4229,-0.8728,1.995,-5.066,-1.356
1772932309289.0913,-0.1318,-0.4244,-0.874,1.995,-4.935,-1.208
1772932309289.0913,-0.1324,-0.4245,-0.8761,1.881,-5.031,-1.488
1772932309304.647,-0.1328,-0.4247,-0.8751,1.995,-5.162,-1.514
1772932309304.647,-0.1329,-0.4263,-0.8763,1.794,-5.224,-1.391
1772932309304.647,-0.1322,-0.4284,-0.875,1.811,-5.101,-1.312
1772932309304.647,-0.1315,-0.4273,-0.8761,1.829,-5.206,-1.321
1772932309304.647,-0.1307,-0.4285,-0.8789,1.724,-5.416,-1.12
1772932309320.764,-0.1309,-0.4254,-0.8758,1.645,-5.364,-1.12
1772932309320.764,-0.1299,-0.4226,-0.8764,1.391,-5.469,-1.304
1772932309320.764,-0.1283,-0.4231,-0.8774,1.155,-4.9,-1.024
1772932309320.764,-0.1294,-0.4186,-0.8768,1.094,-5.285,-1.129
1772932309336.0088,-0.1301,-0.4161,-0.8806,1.015,-4.97,-1.032
1772932309336.0088,-0.1295,-0.4138,-0.8792,0.936,-5.189,-1.111
1772932309336.0088,-0.1312,-0.4145,-0.8804,0.927,-5.18,-1.225
1772932309336.0088,-0.1301,-0.4136,-0.8825,0.779,-5.241,-1.391
1772932309352.095,-0.1293,-0.413,-0.8812,0.858,-5.197,-1.461
1772932309352.095,-0.1274,-0.4106,-0.883,0.63,-5.338,-1.698
1772932309352.095,-0.1291,-0.4135,-0.8818,0.691,-5.381,-1.671
1772932309352.095,-0.1301,-0.4118,-0.883,0.744,-5.556,-1.829
1772932309368.1538,-0.1321,-0.4102,-0.8791,0.691,-5.775,-1.829
1772932309368.1538,-0.1322,-0.4088,-0.8818,0.56,-5.758,-1.575
1772932309368.1538,-0.1322,-0.4097,-0.8796,0.341,-5.609,-1.47
1772932309383.7478,-0.1318,-0.4097,-0.8817,0.315,-5.819,-1.374
1772932309383.7478,-0.132,-0.4085,-0.8814,0.42,-5.749,-1.461
1772932309383.7478,-0.132,-0.4106,-0.8804,0.166,-5.617,-1.531
1772932309383.7478,-0.1342,-0.4083,-0.8805,0.315,-5.644,-1.514
1772932309383.7478,-0.1338,-0.4069,-0.8796,0.49,-5.766,-1.356
1772932309398.7075,-0.1309,-0.4066,-0.8804,0.42,-5.644,-1.234
1772932309398.7075,-0.1335,-0.3909,-0.8825,0.963,-5.827,-0.963
1772932309398.7075,-0.135,-0.4032,-0.8832,1.094,-5.924,-1.076
1772932309398.7075,-0.1365,-0.4029,-0.8841,1.137,-5.478,-1.059
1772932309413.783,-0.1338,-0.4017,-0.8822,1.479,-5.425,-0.91
1772932309413.783,-0.1336,-0.3993,-0.8849,1.855,-5.845,-1.12
1772932309413.783,-0.1361,-0.4014,-0.8838,2.126,-5.801,-1.26
1772932309413.783,-0.1368,-0.3993,-0.883,2.223,-5.985,-1.417
1772932309429.5422,-0.1351,-0.4038,-0.8883,2.205,-5.679,-1.435
1772932309429.5422,-0.132,-0.4016,-0.8902,2.406,-5.679,-1.33
1772932309429.5422,-0.1357,-0.4005,-0.8843,2.319,-5.819,-1.488
1772932309429.5422,-0.1376,-0.3997,-0.8849,2.1,-6.151,-1.339
1772932309444.6702,-0.138,-0.4013,-0.8865,2.249,-5.53,-1.278
1772932309444.6702,-0.1396,-0.4021,-0.8872,2.502,-5.88,-1.155
1772932309444.6702,-0.1403,-0.4033,-0.8847,2.511,-6.169,-1.33
1772932309460.7498,-0.1409,-0.4003,-0.8833,2.599,-5.862,-1.111
1772932309460.7498,-0.1405,-0.4025,-0.884,2.888,-5.827,-1.146
1772932309460.7498,-0.1414,-0.4059,-0.8825,2.853,-5.539,-1.216
1772932309460.7498,-0.141,-0.4049,-0.8838,3.255,-5.731,-0.91
1772932309475.8032,-0.1382,-0.4046,-0.8822,3.351,-5.723,-0.691
1772932309475.8032,-0.1366,-0.4064,-0.8799,3.308,-5.994,-0.998
1772932309475.8032,-0.1354,-0.4058,-0.8777,3.465,-5.862,-1.024
1772932309475.8032,-0.1331,-0.4044,-0.878,3.491,-5.679,-1.067
1772932309475.8032,-0.1328,-0.4021,-0.876,3.465,-5.661,-1.041
1772932309491.3374,-0.1285,-0.4028,-0.8736,3.474,-5.696,-1.19
1772932309491.3374,-0.1284,-0.4025,-0.8885,3.596,-5.548,-1.059
1772932309491.3374,-0.1313,-0.4067,-0.8742,3.78,-5.644,-1.505
1772932309491.3374,-0.1285,-0.4083,-0.8739,3.938,-5.749,-1.496
1772932309506.9404,-0.1302,-0.4102,-0.8722,3.938,-5.723,-1.496
1772932309506.9404,-0.1297,-0.411,-0.8749,4.069,-5.81,-1.593
1772932309506.9404,-0.1302,-0.412,-0.8756,4.244,-5.714,-1.663
1772932309523.3704,-0.1326,-0.4113,-0.8768,4.261,-6.125,-1.969
1772932309523.3704,-0.1315,-0.4127,-0.8749,4.174,-5.889,-1.925
1772932309523.3704,-0.1334,-0.4139,-0.8732,4.13,-5.994,-2.1
1772932309523.3704,-0.1329,-0.4131,-0.8761,4.305,-5.941,-1.942
1772932309538.9573,-0.1347,-0.4144,-0.8776,4.051,-5.915,-1.768
1772932309538.9573,-0.1358,-0.4148,-0.8794,4.139,-6.239,-1.601
1772932309538.9573,-0.1354,-0.4175,-0.8608,4.051,-5.933,-1.269
1772932309538.9573,-0.1352,-0.4169,-0.8765,4.314,-6.02,-1.242
1772932309554.0166,-0.1339,-0.4181,-0.8764,3.981,-5.688,-1.05
1772932309554.0166,-0.1361,-0.4161,-0.8789,3.902,-5.793,-1.173
1772932309554.0166,-0.1344,-0.413,-0.8774,3.876,-5.941,-1.269
1772932309554.0166,-0.1357,-0.415,-0.8768,4.034,-5.749,-1.488
1772932309554.0166,-0.1356,-0.4144,-0.8807,3.876,-5.346,-1.724
1772932309570.1208,-0.1356,-0.4147,-0.8815,3.833,-5.582,-1.899
1772932309570.1208,-0.1368,-0.4176,-0.8814,3.964,-5.635,-1.741
1772932309570.1208,-0.1373,-0.4169,-0.8827,3.5,-5.25,-1.75
1772932309570.1208,-0.1379,-0.418,-0.8823,3.684,-5.469,-1.698
1772932309585.214,-0.1344,-0.4226,-0.8848,3.071,-5.539,-2.109
1772932309585.214,-0.1333,-0.4272,-0.8814,2.319,-5.862,-1.986
1772932309585.214,-0.1335,-0.4335,-0.8744,1.47,-6.344,-2.013
1772932309585.214,-0.1326,-0.4326,-0.8694,0.823,-6.641,-2.021
1772932309600.8757,-0.1353,-0.4255,-0.8711,1.094,-6.282,-2.047
1772932309600.8757,-0.1404,-0.4199,-0.8661,1.33,-6.492,-2.074
1772932309600.8757,-0.1392,-0.4176,-0.8656,1.899,-6.545,-1.776
1772932309616.833,-0.1372,-0.4116,-0.8713,2.931,-6.186,-0.98
1772932309616.833,-0.133,-0.4042,-0.8752,3.815,-5.906,-0.84
1772932309616.833,-0.1311,-0.4019,-0.8789,4.716,-5.11,-1.12
1772932309616.833,-0.1273,-0.4098,-0.8763,5.075,-4.751,-1.251
1772932309632.5256,-0.1209,-0.4202,-0.8749,4.13,-4.104,-1.234
1772932309632.5256,-0.1163,-0.4236,-0.8757,3.308,-4.305,-1.479
1772932309632.5256,-0.1165,-0.4199,-0.8784,1.925,-4.541,-1.61
1772932309632.5256,-0.1246,-0.411,-0.8764,1.61,-4.952,-1.978
1772932309632.5256,-0.1277,-0.4088,-0.873,1.881,-4.751,-1.785
1772932309648.1829,-0.1313,-0.4152,-0.8694,2.328,-4.322,-1.636
1772932309648.1829,-0.1297,-0.4243,-0.8644,2.581,-4.2,-1.269
1772932309648.1829,-0.126,-0.4285,-0.8616,2.144,-4.034,-0.971
1772932309648.1829,-0.1257,-0.4272,-0.8631,1.155,-3.719,-0.709
1772932309663.916,-0.1279,-0.4193,-0.8677,0.534,-4.27,-0.726
1772932309663.916,-0.1324,-0.4181,-0.865,0.621,-4.655,-0.761
1772932309663.916,-0.136,-0.4197,-0.8634,0.884,-4.856,-1.164
1772932309663.916,-0.1383,-0.4182,-0.8625,1.032,-4.821,-1.426
1772932309679.5803,-0.1364,-0.4138,-0.8645,1.689,-5.189,-1.627
1772932309679.5803,-0.1368,-0.4114,-0.8712,2.564,-5.329,-1.698
1772932309679.5803,-0.1369,-0.4058,-0.8745,3.71,-5.688,-1.969
1772932309679.5803,-0.1362,-0.4052,-0.8778,4.384,-5.915,-2.275
1772932309694.7864,-0.139,-0.403,-0.8894,5.285,-6.151,-2.555
1772932309694.7864,-0.1375,-0.404,-0.8954,5.407,-6.09,-2.546
1772932309694.7864,-0.1358,-0.405,-0.9024,5.784,-5.845,-3.01
1772932309710.4019,-0.1351,-0.4078,-0.9004,5.705,-6.09,-2.861
1772932309710.4019,-0.1314,-0.4176,-0.905,5.075,-5.889,-2.791
1772932309710.4019,-0.126,-0.4218,-0.9024,4.393,-5.871,-2.389
1772932309710.4019,-0.1215,-0.4265,-0.8985,3.456,-6.037,-2.205
1772932309725.9402,-0.1182,-0.4318,-0.8958,2.607,-6.099,-1.978
1772932309725.9402,-0.1185,-0.4299,-0.8927,2.126,-5.854,-1.768
1772932309725.9402,-0.1205,-0.4306,-0.8882,1.724,-5.67,-1.356
1772932309725.9402,-0.123,-0.4276,-0.888,1.916,-5.495,-1.321
1772932309725.9402,-0.122,-0.4277,-0.8847,2.056,-5.652,-1.024
1772932309741.4639,-0.1241,-0.4224,-0.881,1.978,-5.162,-0.971
1772932309741.4639,-0.1264,-0.4196,-0.8834,1.82,-5.066,-1.059
1772932309741.4639,-0.1261,-0.4189,-0.8794,2.196,-5.171,-1.321
1772932309741.4639,-0.1264,-0.4166,-0.88,2.564,-5.04,-1.435
1772932309757.0483,-0.126,-0.4154,-0.8789,2.45,-5.022,-1.286
1772932309757.0483,-0.1272,-0.4149,-0.8764,2.721,-4.707,-1.251
1772932309757.0483,-0.1282,-0.4167,-0.8763,2.371,-4.463,-1.032
1772932309773.0696,-0.1274,-0.4166,-0.8755,2.319,-4.707,-1.365
1772932309773.0696,-0.1283,-0.4147,-0.8751,1.89,-4.795,-1.417
1772932309773.0696,-0.1322,-0.4118,-0.876,1.33,-5.18,-1.435
1772932309773.0696,-0.1333,-0.4066,-0.8747,1.391,-5.162,-1.575
1772932309789.1357,-0.1336,-0.4072,-0.8754,1.242,-5.338,-1.741
1772932309789.1357,-0.1362,-0.4055,-0.874,1.75,-5.539,-1.873
1772932309789.1357,-0.1386,-0.4066,-0.8733,1.916,-5.32,-2.021
1772932309789.1357,-0.1379,-0.4059,-0.8705,1.986,-5.53,-1.846
1772932309804.663,-0.1387,-0.4049,-0.8733,2.415,-5.652,-1.785
1772932309804.663,-0.136,-0.4044,-0.8719,2.555,-5.723,-1.627
1772932309804.663,-0.1357,-0.4032,-0.8742,2.467,-5.565,-1.426
1772932309804.663,-0.1335,-0.4022,-0.8746,2.73,-5.372,-1.505
1772932309804.663,-0.1332,-0.4044,-0.8729,2.984,-5.644,-1.33
1772932309820.7014,-0.1329,-0.4008,-0.8745,3.132,-5.591,-1.593
1772932309820.7014,-0.1324,-0.4019,-0.8728,3.316,-5.626,-1.435
1772932309820.7014,-0.131,-0.4022,-0.873,3.43,-5.241,-1.785
1772932309820.7014,-0.1318,-0.404,-0.8729,3.728,-4.874,-1.47
1772932309836.7375,-0.1308,-0.404,-0.873,3.71,-5.206,-1.873
1772932309836.7375,-0.133,-0.4064,-0.8747,4.121,-4.856,-1.698
1772932309836.7375,-0.1315,-0.4068,-0.8756,4.043,-4.883,-2.056
1772932309836.7375,-0.1343,-0.4079,-0.8812,4.261,-4.777,-2.083
1772932309852.786,-0.1348,-0.4143,-0.8813,4.515,-4.742,-1.785
1772932309852.786,-0.1354,-0.4134,-0.8841,4.428,-4.848,-1.558
1772932309852.786,-0.1352,-0.4159,-0.8856,4.62,-5.128,-1.549
1772932309852.786,-0.1376,-0.4157,-0.8839,4.463,-5.311,-1.82
1772932309867.9553,-0.1347,-0.4168,-0.8856,5.031,-5.058,-1.925
1772932309867.9553,-0.1335,-0.4174,-0.8829,4.559,-5.364,-1.837
1772932309867.9553,-0.133,-0.4158,-0.8866,4.445,-5.294,-2.17
1772932309883.0212,-0.1334,-0.4189,-0.8869,4.463,-5.451,-2.362
1772932309883.0212,-0.1374,-0.4175,-0.8855,4.506,-5.801,-2.397
1772932309883.0212,-0.1382,-0.4178,-0.8868,4.497,-5.6,-2.415
1772932309883.0212,-0.1379,-0.4161,-0.8879,4.725,-5.845,-2.257
1772932309883.0212,-0.1372,-0.416,-0.8901,4.812,-6.204,-2.065
1772932309898.1545,-0.1338,-0.4179,-0.8877,4.935,-5.933,-2.161
1772932309898.1545,-0.1312,-0.4204,-0.8885,4.795,-5.968,-1.785
1772932309898.1545,-0.1255,-0.4154,-0.8869,4.664,-5.88,-1.759
1772932309898.1545,-0.1252,-0.4144,-0.8858,4.463,-6.186,-1.715
1772932309913.731,-0.1216,-0.4123,-0.8848,4.401,-6.081,-1.575
1772932309913.731,-0.1227,-0.4148,-0.8804,3.78,-6.353,-1.339
1772932309913.731,-0.1185,-0.4198,-0.8768,3.763,-6.335,-1.365
1772932309913.731,-0.1196,-0.4232,-0.8727,2.984,-5.495,-1.312
1772932309929.335,-0.1208,-0.4232,-0.8702,2.354,-5.355,-0.963
1772932309929.335,-0.1225,-0.428,-0.8683,2.257,-5.381,-1.19
1772932309929.335,-0.1278,-0.4207,-0.8692,2.118,-5.478,-1.006
1772932309929.335,-0.1302,-0.4203,-0.8685,2.424,-5.679,-1.129
1772932309944.545,-0.1336,-0.4166,-0.8641,2.984,-5.766,-1.312
1772932309944.545,-0.1322,-0.4162,-0.8684,3.553,-5.67,-1.059
1772932309944.545,-0.1319,-0.4107,-0.8657,4.112,-5.565,-1.278
1772932309959.6992,-0.1298,-0.4118,-0.8653,4.48,-5.224,-1.269
1772932309959.6992,-0.1301,-0.4088,-0.8687,4.646,-5.25,-1.339
1772932309959.6992,-0.1308,-0.4064,-0.8708,4.541,-5.241,-2.056
1772932309959.6992,-0.1281,-0.4084,-0.8736,4.515,-5.486,-2.056
1772932309975.7368,-0.1307,-0.4099,-0.8747,4.384,-5.399,-2.013
1772932309975.7368,-0.1332,-0.4102,-0.8717,4.086,-5.259,-2.214
1772932309975.7368,-0.1369,-0.4128,-0.8705,3.833,-5.259,-2.441
1772932309975.7368,-0.1357,-0.4178,-0.8726,3.71,-5.407,-2.485
1772932309975.7368,-0.1358,-0.4198,-0.8714,3.325,-5.18,-2.362
1772932309991.374,-0.1357,-0.4214,-0.8724,3.64,-5.119,-2.021
1772932309991.374,-0.1352,-0.4216,-0.8759,3.701,-5.346,-1.907
1772932309991.374,-0.1337,-0.4252,-0.8739,3.973,-5.294,-1.732
1772932309991.374,-0.1312,-0.4249,-0.8774,4.043,-5.014,-1.426
1772932310006.918,-0.1285,-0.4223,-0.8772,3.973,-4.804,-1.164
1772932310006.918,-0.1246,-0.4233,-0.8805,4.069,-4.725,-1.129
1772932310006.918,-0.1254,-0.419,-0.8783,3.719,-4.97,-1.032
1772932310021.9448,-0.1226,-0.417,-0.8796,3.876,-4.777,-0.866
1772932310021.9448,-0.1246,-0.4168,-0.8769,3.85,-4.9,-1.059
1772932310021.9448,-0.1265,-0.4159,-0.8752,3.833,-4.497,-1.032
1772932310021.9448,-0.1232,-0.4176,-0.8792,3.946,-4.287,-1.216
1772932310038.0046,-0.1239,-0.4168,-0.8804,4.121,-4.077,-1.225
1772932310038.0046,-0.1232,-0.4134,-0.8775,4.2,-3.876,-1.286
1772932310038.0046,-0.1239,-0.4149,-0.878,4.156,-3.955,-1.269
1772932310038.0046,-0.1225,-0.4183,-0.8789,4.34,-4.025,-1.435
1772932310053.6143,-0.1186,-0.4187,-0.8784,4.209,-3.894,-1.54
1772932310053.6143,-0.1211,-0.4177,-0.88,3.841,-4.147,-1.627
1772932310053.6143,-0.1234,-0.4176,-0.8805,4.016,-4.2,-1.969
1772932310053.6143,-0.1208,-0.4178,-0.8832,3.833,-4.287,-1.645
1772932310053.6143,-0.1214,-0.4158,-0.8826,3.745,-4.541,-1.75
1772932310068.9734,-0.1215,-0.4155,-0.8821,3.754,-4.48,-1.663
1772932310068.9734,-0.1241,-0.4179,-0.8828,3.623,-4.55,-1.96
1772932310068.9734,-0.122,-0.4179,-0.8842,3.815,-5.093,-2.004
1772932310068.9734,-0.1202,-0.4215,-0.8831,3.57,-4.804,-1.645
1772932310085.059,-0.1228,-0.4256,-0.8847,3.229,-4.865,-1.522
1772932310085.059,-0.1222,-0.4256,-0.8854,2.809,-4.725,-1.68
1772932310085.059,-0.119,-0.4294,-0.8841,2.581,-4.83,-1.522
1772932310085.059,-0.12,-0.4286,-0.8823,2.336,-5.381,-1.26
1772932310100.624,-0.1216,-0.4254,-0.8816,2.126,-5.416,-1.278
1772932310100.624,-0.1224,-0.4238,-0.88,2.1,-5.442,-1.286
1772932310100.624,-0.1247,-0.4238,-0.8769,2.152,-5.714,-1.286
1772932310115.6794,-0.1268,-0.4222,-0.8771,2.31,-5.451,-1.146
1772932310115.6794,-0.129,-0.4191,-0.8776,2.301,-5.399,-1.383
1772932310115.6794,-0.1275,-0.4194,-0.8775,2.678,-5.32,-1.269
1772932310115.6794,-0.1285,-0.4196,-0.878,2.809,-5.679,-1.12
1772932310131.7485,-0.1304,-0.4157,-0.8788,3.01,-5.425,-1.129
1772932310131.7485,-0.1326,-0.4154,-0.8777,2.94,-5.031,-1.181
1772932310131.7485,-0.1301,-0.4119,-0.8808,2.922,-4.926,-1.522
1772932310131.7485,-0.1328,-0.4123,-0.8796,2.993,-5.329,-1.286
1772932310131.7485,-0.1318,-0.4111,-0.879,3.062,-5.136,-1.417
1772932310147.0112,-0.1335,-0.4131,-0.8775,3.071,-5.171,-1.374
1772932310147.0112,-0.1288,-0.4141,-0.8775,2.607,-4.883,-1.295
1772932310147.0112,-0.1283,-0.4174,-0.8762,2.791,-4.97,-1.085
1772932310147.0112,-0.1293,-0.4164,-0.8739,2.476,-4.76,-1.103
1772932310162.0977,-0.1302,-0.4154,-0.8758,2.476,-4.742,-1.024
1772932310162.0977,-0.1328,-0.4193,-0.8752,2.415,-4.987,-1.085
1772932310162.0977,-0.132,-0.4153,-0.8731,2.188,-4.428,-0.927
1772932310177.702,-0.1302,-0.4155,-0.873,2.397,-4.786,-0.971
1772932310177.702,-0.128,-0.4159,-0.8714,2.616,-4.996,-1.085
1772932310177.702,-0.1283,-0.4146,-0.8711,2.861,-4.909,-1.339
1772932310177.702,-0.1301,-0.4146,-0.8654,2.896,-5.162,-1.435
1772932310193.7578,-0.1299,-0.4143,-0.8664,3.255,-5.031,-1.619
1772932310193.7578,-0.1277,-0.4185,-0.8674,3.237,-5.276,-1.435
1772932310193.7578,-0.1292,-0.4211,-0.8684,3.71,-5.101,-1.339
1772932310193.7578,-0.1314,-0.4187,-0.8704,3.938,-5.005,-0.971
1772932310209.8013,-0.1314,-0.4193,-0.871,4.156,-4.83,-0.927
1772932310209.8013,-0.1327,-0.4158,-0.8695,4.41,-4.699,-0.7
1772932310209.8013,-0.1364,-0.412,-0.8689,4.261,-4.646,-0.866
1772932310209.8013,-0.1379,-0.415,-0.8746,3.902,-4.681,-1.208
1772932310225.6274,-0.1367,-0.4185,-0.8724,4.209,-4.987,-0.814
1772932310225.6274,-0.1312,-0.4183,-0.8749,4.305,-4.751,-0.718
1772932310225.6274,-0.1288,-0.4154,-0.8765,4.305,-4.9,-0.385
1772932310225.6274,-0.129,-0.4158,-0.8762,4.279,-4.918,-0.455
1772932310225.6274,-0.1255,-0.4147,-0.8761,4.287,-5.005,-0.315
1772932310241.2112,-0.1246,-0.4142,-0.8747,4.095,-5.399,-0.481
1772932310241.2112,-0.1233,-0.4118,-0.8741,3.902,-5.04,-0.858
1772932310241.2112,-0.1231,-0.4098,-0.8731,4.034,-5.329,-1.312
1772932310241.2112,-0.1198,-0.4128,-0.874,3.894,-4.996,-1.251
1772932310256.7559,-0.1211,-0.4159,-0.8764,4.174,-5.049,-1.479
1772932310256.7559,-0.118,-0.4168,-0.876,4.095,-4.603,-1.531
1772932310256.7559,-0.1191,-0.4216,-0.8758,4.209,-4.55,-1.488
1772932310272.2498,-0.1208,-0.4229,-0.8796,4.76,-4.594,-1.505
1772932310272.2498,-0.1207,-0.4217,-0.8772,4.454,-4.463,-1.216
1772932310272.2498,-0.1248,-0.4174,-0.8786,4.655,-4.253,-1.111
1772932310272.2498,-0.1267,-0.42,-0.8804,4.961,-4.121,-1.076
1772932310287.7964,-0.1276,-0.4197,-0.8796,4.777,-3.999,-1.199
1772932310287.7964,-0.1296,-0.4191,-0.8819,5.189,-4.121,-1.54
1772932310287.7964,-0.1293,-0.4207,-0.8836,5.128,-3.902,-1.636
1772932310287.7964,-0.1304,-0.4192,-0.8819,4.848,-3.938,-1.951
1772932310303.3457,-0.1268,-0.4185,-0.8804,5.031,-3.973,-1.96
1772932310303.3457,-0.1327,-0.4222,-0.8789,4.944,-4.016,-1.663
1772932310303.3457,-0.1317,-0.4218,-0.8808,4.524,-4.393,-1.645
1772932310303.3457,-0.132,-0.4239,-0.8819,4.611,-4.62,-1.549
1772932310303.3457,-0.1332,-0.4241,-0.8788,4.428,-4.139,-1.225
1772932310318.499,-0.1313,-0.4222,-0.8793,4.183,-4.375,-1.199
1772932310318.499,-0.1321,-0.4233,-0.8766,4.261,-4.226,-1.286
1772932310318.499,-0.1314,-0.4209,-0.8738,4.524,-4.559,-1.103
1772932310318.499,-0.1263,-0.4238,-0.8764,4.629,-4.41,-1.19
1772932310334.588,-0.125,-0.4221,-0.8728,4.707,-4.812,-1.199
1772932310334.588,-0.1233,-0.4198,-0.8738,4.856,-4.725,-1.575
1772932310334.588,-0.1263,-0.4211,-0.8719,4.952,-4.62,-1.584
1772932310349.7212,-0.1293,-0.4202,-0.8744,4.987,-4.812,-1.619
1772932310349.7212,-0.1312,-0.4191,-0.8746,4.918,-4.795,-1.374
1772932310349.7212,-0.133,-0.4168,-0.8746,4.76,-4.769,-1.549
1772932310349.7212,-0.1343,-0.4129,-0.8759,4.62,-4.725,-1.794
1772932310365.7566,-0.1366,-0.411,-0.8758,4.848,-5.145,-1.881
1772932310365.7566,-0.1382,-0.4145,-0.8736,5.084,-5.093,-2.065
1772932310365.7566,-0.136,-0.4158,-0.8736,5.049,-4.944,-2.511
1772932310365.7566,-0.1345,-0.4189,-0.8754,5.338,-5.162,-2.844
1772932310381.7854,-0.1315,-0.4242,-0.8735,5.451,-5.434,-2.529
1772932310381.7854,-0.1312,-0.4217,-0.8725,5.259,-5.224,-2.581
1772932310381.7854,-0.1322,-0.4248,-0.8725,5.101,-5.25,-2.389
1772932310381.7854,-0.1301,-0.4257,-0.8738,5.303,-5.311,-2.126
1772932310381.7854,-0.1296,-0.4264,-0.874,5.425,-5.058,-1.61
1772932310396.8088,-0.129,-0.4285,-0.8732,5.338,-4.909,-1.593
1772932310396.8088,-0.1279,-0.4263,-0.8699,5.6,-4.979,-1.584
1772932310396.8088,-0.1294,-0.4244,-0.8723,5.793,-5.154,-1.522
1772932310396.8088,-0.1261,-0.4229,-0.8739,5.889,-4.821,-1.689
1772932310412.843,-0.1263,-0.4219,-0.8724,5.897,-4.795,-1.68
1772932310412.843,-0.1283,-0.4233,-0.8711,6.239,-5.136,-1.951
1772932310412.843,-0.1263,-0.423,-0.8719,5.976,-5.268,-1.986
1772932310412.843,-0.1294,-0.4268,-0.871,5.871,-5.364,-1.881
1772932310429.38,-0.1301,-0.4255,-0.8722,5.556,-5.25,-1.881
1772932310429.38,-0.1297,-0.4266,-0.8696,5.862,-5.136,-1.925
1772932310429.38,-0.1308,-0.4244,-0.8705,5.67,-5.014,-1.488
1772932310429.38,-0.1327,-0.4248,-0.8711,5.749,-5.136,-1.601
1772932310444.509,-0.1326,-0.4241,-0.8714,5.521,-5.119,-1.741
1772932310444.509,-0.1286,-0.4266,-0.871,5.67,-5.39,-1.514
1772932310444.509,-0.1289,-0.4262,-0.8719,5.407,-4.961,-1.505
1772932310460.091,-0.1278,-0.4227,-0.8733,5.652,-5.364,-2.135
1772932310460.091,-0.1277,-0.4088,-0.8708,5.652,-5.495,-2.275
1772932310460.091,-0.1279,-0.4241,-0.8716,5.731,-5.311,-2.38
1772932310460.091,-0.1255,-0.4242,-0.873,5.862,-5.442,-2.38
1772932310475.6697,-0.1239,-0.4269,-0.8746,6.055,-4.716,-2.572
1772932310475.6697,-0.1271,-0.4272,-0.8775,5.74,-5.189,-2.949
1772932310475.6697,-0.1243,-0.4283,-0.8758,6.239,-5.18,-2.958
1772932310475.6697,-0.1259,-0.432,-0.876,5.766,-5.399,-2.87
1772932310475.6697,-0.1242,-0.4307,-0.8788,5.617,-5.232,-3.001
1772932310491.193,-0.125,-0.4324,-0.8793,5.565,-5.294,-2.625
1772932310491.193,-0.1259,-0.4328,-0.8775,5.268,-5.276,-2.424
1772932310491.193,-0.1277,-0.4304,-0.876,5.294,-5.259,-2.074
1772932310491.193,-0.1258,-0.4339,-0.8764,5.171,-5.416,-2.152
1772932310506.7322,-0.1269,-0.433,-0.8763,5.058,-5.478,-1.846
1772932310506.7322,-0.128,-0.4325,-0.8764,4.489,-5.346,-1.873
1772932310506.7322,-0.1276,-0.4351,-0.8736,4.428,-5.232,-1.601
1772932310523.2893,-0.1282,-0.434,-0.875,4.287,-5.241,-1.505
1772932310523.2893,-0.1283,-0.4341,-0.8769,3.964,-5.486,-1.4
1772932310523.2893,-0.1254,-0.4356,-0.8727,3.902,-5.591,-1.26
1772932310523.2893,-0.1268,-0.4332,-0.8877,3.176,-5.346,-1.155
1772932310539.0088,-0.1255,-0.4325,-0.8724,3.132,-5.582,-1.208
1772932310539.0088,-0.1242,-0.4304,-0.873,3.176,-5.521,-0.945
1772932310539.0088,-0.1216,-0.4306,-0.8707,3.132,-5.355,-1.584
1772932310539.0088,-0.1213,-0.4258,-0.8721,3.071,-5.626,-1.584
1772932310554.6445,-0.1224,-0.4263,-0.8735,3.089,-5.635,-1.741
1772932310554.6445,-0.1207,-0.4277,-0.8714,3.185,-5.582,-1.654
1772932310554.6445,-0.1253,-0.4263,-0.8689,3.167,-5.548,-1.698
1772932310554.6445,-0.1243,-0.4265,-0.8685,3.211,-5.513,-1.837
1772932310554.6445,-0.1257,-0.4253,-0.873,3.22,-5.294,-1.864
1772932310569.8975,-0.1265,-0.4238,-0.8725,3.299,-4.856,-1.811
1772932310569.8975,-0.123,-0.4251,-0.8734,3.491,-4.9,-1.794
1772932310569.8975,-0.1255,-0.4279,-0.8737,3.15,-4.673,-2.03
1772932310569.8975,-0.1228,-0.4288,-0.8775,3.308,-4.996,-1.706
1772932310584.9314,-0.122,-0.4301,-0.8767,2.494,-5.093,-1.829
1772932310584.9314,-0.1174,-0.436,-0.8754,2.275,-5.005,-1.811
1772932310584.9314,-0.1177,-0.4441,-0.8694,1.024,-5.338,-2.1
1772932310584.9314,-0.1168,-0.4405,-0.8689,-0.131,-5.241,-2.074
1772932310600.7144,-0.1182,-0.4265,-0.8711,0.149,-5.171,-2.66
1772932310600.7144,-0.1148,-0.4283,-0.8681,-0.219,-5.075,-2.424
1772932310600.7144,-0.1154,-0.4292,-0.868,0.455,-5.04,-2.502
1772932310615.7837,-0.1146,-0.4196,-0.8743,1.024,-5.189,-2.056
1772932310615.7837,-0.1135,-0.4104,-0.8811,2.433,-4.716,-1.96
1772932310615.7837,-0.118,-0.4047,-0.8886,4.576,-3.911,-2.179
1772932310615.7837,-0.1181,-0.4162,-0.8961,4.979,-3.325,-1.645
1772932310631.805,-0.1168,-0.4313,-0.8959,4.883,-2.844,-1.575
1772932310631.805,-0.1127,-0.437,-0.8952,3.833,-3.089,-1.383
1772932310631.805,-0.1107,-0.4392,-0.8954,2.52,-3.929,-1.374
1772932310631.805,-0.1107,-0.4379,-0.8919,1.522,-4.051,-1.278
1772932310647.3308,-0.1172,-0.4337,-0.8877,1.627,-4.515,-1.488
1772932310647.3308,-0.1231,-0.4408,-0.878,1.881,-5.049,-1.689
1772932310647.3308,-0.1258,-0.4435,-0.8641,2.179,-4.891,-0.989
1772932310647.3308,-0.1219,-0.4458,-0.8603,1.496,-4.734,-0.875
1772932310647.3308,-0.1199,-0.443,-0.8551,1.006,-4.559,-0.429
1772932310662.9148,-0.1215,-0.433,-0.8556,0.682,-4.559,-0.718
1772932310662.9148,-0.1234,-0.4285,-0.8544,0.595,-5.171,-1.129
1772932310662.9148,-0.1271,-0.4288,-0.8521,0.77,-5.215,-1.234
1772932310662.9148,-0.1305,-0.4255,-0.8487,1.234,-5.311,-1.225
1772932310679.468,-0.1338,-0.4214,-0.848,1.732,-5.189,-1.137
1772932310679.468,-0.1321,-0.4201,-0.8538,2.135,-5.495,-1.383
1772932310679.468,-0.1348,-0.4166,-0.8564,2.853,-5.372,-1.698
1772932310679.468,-0.1337,-0.4136,-0.8609,3.824,-5.197,-1.942
1772932310694.5518,-0.1349,-0.4153,-0.871,4.463,-4.83,-1.645
1772932310694.5518,-0.1337,-0.4174,-0.8742,4.699,-4.812,-1.654
1772932310694.5518,-0.1331,-0.4209,-0.8788,4.97,-4.821,-1.409
1772932310710.3057,-0.1319,-0.426,-0.8813,4.812,-4.804,-1.654
1772932310710.3057,-0.1283,-0.4281,-0.8859,4.428,-4.629,-1.365
1772932310710.3057,-0.1246,-0.4315,-0.8832,3.745,-4.874,-1.479
1772932310710.3057,-0.1208,-0.4369,-0.8801,3.098,-5.478,-1.33
1772932310725.907,-0.1217,-0.4357,-0.8772,2.8,-5.539,-1.269
1772932310725.907,-0.1179,-0.4369,-0.8774,2.476,-5.836,-1.067
1772932310725.907,-0.1167,-0.4343,-0.874,2.643,-5.661,-1.409
1772932310725.907,-0.118,-0.4339,-0.8728,2.791,-5.74,-1.33
1772932310725.907,-0.1133,-0.432,-0.8729,3.605,-5.469,-1.365
1772932310741.5933,-0.1147,-0.4327,-0.8714,3.754,-5.128,-1.137
1772932310741.5933,-0.1168,-0.4316,-0.8725,4.218,-4.909,-1.356
1772932310741.5933,-0.1157,-0.4297,-0.8723,4.235,-4.804,-1.619
1772932310741.5933,-0.113,-0.4288,-0.8699,4.497,-4.235,-1.846
1772932310756.8237,-0.1118,-0.4315,-0.8694,4.664,-4.025,-1.75
1772932310756.8237,-0.1118,-0.4349,-0.8676,4.436,-3.789,-1.68
1772932310756.8237,-0.1096,-0.439,-0.8677,4.445,-3.754,-1.619
1772932310773.047,-0.1103,-0.4396,-0.8673,4.016,-3.71,-1.811
1772932310773.047,-0.1139,-0.436,-0.8655,3.64,-3.763,-1.47
1772932310773.047,-0.1118,-0.4351,-0.8686,3.019,-3.666,-1.593
1772932310773.047,-0.1155,-0.4325,-0.8707,2.993,-4.139,-1.54
1772932310788.9512,-0.1174,-0.4269,-0.8699,2.739,-4.41,-1.881
1772932310788.9512,-0.1225,-0.4249,-0.8699,2.905,-4.436,-2.205
1772932310788.9512,-0.1218,-0.4238,-0.8713,3.124,-4.524,-2.205
1772932310788.9512,-0.1208,-0.4244,-0.8719,2.914,-4.9,-1.881
1772932310804.6924,-0.121,-0.4243,-0.8744,2.8,-5.154,-2.039
1772932310804.6924,-0.1213,-0.4234,-0.8747,2.625,-5.338,-1.916
1772932310804.6924,-0.1224,-0.4229,-0.8724,2.555,-5.399,-1.409
1772932310804.6924,-0.123,-0.4241,-0.8716,2.441,-5.259,-1.488
1772932310804.6924,-0.1202,-0.4266,-0.8731,2.345,-4.996,-1.374
1772932310820.0156,-0.1194,-0.4256,-0.874,2.572,-5.329,-1.391
1772932310820.0156,-0.1172,-0.4259,-0.8754,2.529,-5.154,-1.356
1772932310820.0156,-0.118,-0.4257,-0.8748,2.301,-5.197,-1.286
1772932310820.0156,-0.1177,-0.4282,-0.8751,2.599,-5.04,-1.47
1772932310834.6943,-0.116,-0.4291,-0.8767,2.739,-4.883,-1.549
1772932310834.6943,-0.1171,-0.4306,-0.8766,2.791,-5.329,-1.593
1772932310834.6943,-0.1139,-0.429,-0.8755,2.87,-5.268,-1.347
1772932310850.7903,-0.1141,-0.4316,-0.8712,3.089,-5.425,-1.54
1772932310850.7903,-0.1147,-0.4307,-0.8744,2.949,-5.224,-1.496
1772932310850.7903,-0.1172,-0.4325,-0.873,3.141,-5.259,-1.671
1772932310850.7903,-0.1196,-0.4291,-0.876,3.132,-5.075,-1.383
1772932310866.105,-0.12,-0.4266,-0.8744,3.176,-4.918,-1.61
1772932310866.105,-0.1208,-0.4246,-0.875,3.334,-4.795,-1.785
1772932310866.105,-0.1222,-0.4224,-0.8757,3.474,-5.022,-1.654
1772932310866.105,-0.1249,-0.4213,-0.8746,3.482,-5.084,-1.549
1772932310881.4297,-0.1249,-0.4233,-0.8733,3.544,-5.093,-1.855
1772932310881.4297,-0.1244,-0.4225,-0.8732,3.308,-4.987,-1.89
1772932310881.4297,-0.1276,-0.4244,-0.8734,3.071,-5.154,-1.907
1772932310881.4297,-0.1287,-0.4231,-0.8743,3.01,-5.005,-1.383
1772932310896.9907,-0.1297,-0.4216,-0.8738,3.01,-4.576,-1.339
1772932310896.9907,-0.1312,-0.4246,-0.8716,3.185,-4.716,-1.391
1772932310896.9907,-0.1305,-0.4281,-0.8722,3.509,-4.83,-1.689
1772932310896.9907,-0.129,-0.4314,-0.8736,3.535,-4.918,-1.409
1772932310896.9907,-0.1274,-0.4331,-0.8747,3.649,-4.918,-1.339
1772932310912.7634,-0.124,-0.4294,-0.8763,3.99,-5.197,-1.33
1772932310912.7634,-0.1229,-0.4291,-0.8768,4.209,-5.39,-1.558
1772932310912.7634,-0.1197,-0.4292,-0.8744,4.541,-5.548,-1.47
1772932310912.7634,-0.118,-0.432,-0.8718,4.603,-5.74,-1.601
1772932310928.0444,-0.1125,-0.433,-0.8718,4.419,-5.521,-1.514
1772932310928.0444,-0.1099,-0.4348,-0.8744,4.06,-5.32,-1.61
1772932310928.0444,-0.1071,-0.4332,-0.8718,3.911,-5.442,-1.435
1772932310943.5571,-0.1093,-0.4361,-0.8706,3.728,-5.626,-1.627
1772932310943.5571,-0.1114,-0.4315,-0.8711,3.684,-5.836,-1.549
1772932310943.5571,-0.1121,-0.4308,-0.8678,3.649,-5.897,-1.435
1772932310943.5571,-0.1123,-0.4274,-0.8635,3.692,-5.906,-1.461
1772932310959.5842,-0.1141,-0.4265,-0.8672,4.112,-5.88,-1.417
1772932310959.5842,-0.1172,-0.4253,-0.8641,4.095,-5.688,-1.155
1772932310959.5842,-0.1182,-0.4254,-0.8658,4.279,-5.941,-0.936
1772932310959.5842,-0.1142,-0.4263,-0.8655,4.043,-5.46,-1.19
1772932310974.781,-0.1147,-0.4243,-0.8648,3.938,-5.232,-1.242
1772932310974.781,-0.1163,-0.4294,-0.8629,3.544,-5.338,-1.286
1772932310974.781,-0.1173,-0.4302,-0.8679,3.404,-5.022,-1.645
1772932310974.781,-0.1204,-0.4299,-0.8658,3.29,-4.996,-1.514
1772932310974.781,-0.1238,-0.4319,-0.8661,3.194,-4.865,-1.627
1772932310989.8152,-0.124,-0.4354,-0.8669,3.045,-4.76,-1.496
1772932310989.8152,-0.125,-0.435,-0.8652,2.949,-4.874,-1.689
1772932311004.9556,-0.1269,-0.4347,-0.8677,3.211,-5.04,-1.54
1772932311004.9556,-0.1263,-0.4314,-0.8698,3.299,-5.478,-1.225
1772932311004.9556,-0.1249,-0.4309,-0.8717,3.237,-5.565,-1.365
1772932311004.9556,-0.1236,-0.4319,-0.8666,3.447,-5.644,-1.181
1772932311004.9556,-0.1268,-0.4293,-0.8723,3.684,-5.617,-1.155
1772932311020.5422,-0.1249,-0.4351,-0.8761,3.754,-5.749,-0.831
1772932311020.5422,-0.1224,-0.4346,-0.876,4.165,-5.845,-0.35
1772932311020.5422,-0.1229,-0.4355,-0.8731,4.156,-5.451,-0.201
1772932311020.5422,-0.1236,-0.4336,-0.8781,4.253,-5.609,0.228
1772932311037.1003,-0.1186,-0.4344,-0.8786,4.567,-5.442,0.341
1772932311037.1003,-0.1188,-0.4322,-0.8794,4.471,-5.303,0.849
1772932311037.1003,-0.1133,-0.432,-0.8823,4.769,-5.442,0.621
1772932311037.1003,-0.1183,-0.4319,-0.8812,5.049,-5.364,0.578
1772932311053.3555,-0.118,-0.432,-0.8845,5.101,-4.97,0.341
1772932311053.3555,-0.118,-0.4335,-0.8821,5.32,-4.742,0.446
1772932311053.3555,-0.1161,-0.4366,-0.8859,5.005,-4.707,0.219
1772932311053.3555,-0.1114,-0.4388,-0.8859,5.495,-4.725,0.236
1772932311053.3555,-0.1144,-0.4367,-0.8832,5.241,-5.022,-0.14
1772932311068.9883,-0.113,-0.4351,-0.8833,4.979,-4.9,-0.175
1772932311068.9883,-0.1158,-0.4354,-0.8819,4.865,-4.786,-0.56
1772932311068.9883,-0.1187,-0.436,-0.8836,4.638,-4.786,-0.752
1772932311068.9883,-0.1148,-0.4361,-0.8758,4.725,-4.926,-0.945
1772932311084.945,-0.1186,-0.4365,-0.8743,4.322,-4.848,-1.242
1772932311084.945,-0.1217,-0.4412,-0.8725,4.48,-4.183,-1.05
1772932311084.945,-0.1278,-0.4384,-0.8697,4.244,-4.489,-0.752
1772932311084.945,-0.1282,-0.4377,-0.8711,4.34,-4.559,-0.516
1772932311100.532,-0.1288,-0.4379,-0.8655,4.349,-4.305,-0.534
1772932311100.532,-0.1294,-0.4352,-0.8667,4.077,-4.401,-0.534
1772932311100.532,-0.1298,-0.431,-0.8647,4.06,-4.401,-0.49
1772932311115.779,-0.1303,-0.4324,-0.8631,3.964,-4.594,-0.551
1772932311115.779,-0.1324,-0.4312,-0.8638,3.894,-4.463,-0.367
1772932311115.779,-0.1298,-0.4309,-0.8627,4.174,-4.891,-0.315
1772932311115.779,-0.1304,-0.4304,-0.862,4.401,-5.049,-0.175
1772932311131.801,-0.129,-0.4316,-0.8581,4.611,-4.926,-0.297
1772932311131.801,-0.1267,-0.4286,-0.8633,4.463,-4.532,-0.35
1772932311131.801,-0.129,-0.4282,-0.8611,4.909,-4.848,-0.604
1772932311131.801,-0.1293,-0.4272,-0.864,4.918,-4.734,-1.059
1772932311131.801,-0.1279,-0.4276,-0.865,4.795,-5.154,-1.181
1772932311147.8376,-0.1286,-0.4273,-0.8666,5.058,-5.145,-1.199
1772932311147.8376,-0.1278,-0.4288,-0.8668,4.979,-4.891,-1.969
1772932311147.8376,-0.1282,-0.428,-0.8661,5.101,-4.9,-2.214
1772932311147.8376,-0.1277,-0.4351,-0.8668,5.259,-5.101,-2.126
1772932311163.4421,-0.1275,-0.4358,-0.869,5.416,-4.821,-2.179
1772932311163.4421,-0.128,-0.4346,-0.8706,4.734,-4.874,-2.118
1772932311163.4421,-0.1312,-0.4349,-0.871,5.119,-4.786,-1.873
1772932311163.4421,-0.1291,-0.4363,-0.8716,4.664,-4.611,-1.785
1772932311179.2456,-0.1319,-0.441,-0.8691,4.428,-4.707,-2.354
1772932311179.2456,-0.1337,-0.441,-0.8695,4.454,-4.996,-2.257
1772932311179.2456,-0.1331,-0.4396,-0.8685,4.673,-4.944,-2.214
1772932311194.6123,-0.134,-0.4393,-0.8698,4.463,-4.786,-2.345
1772932311194.6123,-0.1376,-0.4391,-0.8706,4.664,-4.918,-2.433
1772932311194.6123,-0.1376,-0.4421,-0.8664,4.987,-4.874,-2.319
1772932311194.6123,-0.1371,-0.4404,-0.8706,4.812,-4.777,-1.934
1772932311210.7205,-0.1369,-0.4406,-0.8701,4.996,-4.926,-2.126
1772932311210.7205,-0.1382,-0.4366,-0.8721,4.979,-4.795,-1.636
1772932311210.7205,-0.1331,-0.436,-0.8685,4.664,-4.979,-1.584
1772932311210.7205,-0.1315,-0.4367,-0.8683,4.821,-4.918,-1.54
1772932311210.7205,-0.1271,-0.4352,-0.8701,4.69,-5.136,-1.593
1772932311226.7786,-0.1257,-0.4363,-0.8689,4.524,-5.372,-1.549
1772932311226.7786,-0.1248,-0.4337,-0.8688,4.375,-5.478,-1.47
1772932311226.7786,-0.1242,-0.4302,-0.8687,4.235,-5.355,-1.759
1772932311226.7786,-0.124,-0.43,-0.868,4.41,-5.224,-1.689
1772932311242.3718,-0.121,-0.4307,-0.8691,4.331,-5.486,-1.89
1772932311242.3718,-0.1191,-0.4342,-0.8682,4.603,-5.644,-1.522
1772932311242.3718,-0.117,-0.4335,-0.8682,4.725,-5.609,-1.549
1772932311242.3718,-0.1166,-0.4348,-0.8669,4.454,-5.513,-1.356
1772932311257.8047,-0.1181,-0.4329,-0.8672,4.226,-5.206,-1.654
1772932311257.8047,-0.118,-0.4356,-0.8625,4.55,-5.224,-1.811
1772932311257.8047,-0.1187,-0.4372,-0.8641,4.471,-5.224,-1.715
1772932311257.8047,-0.1174,-0.4398,-0.867,4.55,-4.944,-1.461
1772932311273.0994,-0.1156,-0.4399,-0.8689,4.742,-4.874,-1.417
1772932311273.0994,-0.117,-0.4402,-0.8706,4.725,-4.673,-1.304
1772932311273.0994,-0.1139,-0.4396,-0.8724,4.751,-4.961,-1.242
1772932311288.7026,-0.1138,-0.4355,-0.8714,4.804,-5.04,-1.129
1772932311288.7026,-0.1149,-0.4358,-0.87,4.952,-5.04,-1.365
1772932311288.7026,-0.1147,-0.4338,-0.8719,5.005,-5.197,-1.768
1772932311288.7026,-0.1151,-0.4383,-0.8705,4.638,-4.935,-2.179
1772932311304.8066,-0.1109,-0.4355,-0.8711,4.891,-4.961,-2.17
1772932311304.8066,-0.108,-0.4377,-0.8739,5.022,-5.075,-2.581
1772932311304.8066,-0.1119,-0.4377,-0.8721,4.979,-5.022,-2.686
1772932311304.8066,-0.1112,-0.4379,-0.8712,4.585,-5.049,-2.625
1772932311304.8066,-0.1113,-0.4358,-0.8722,4.515,-4.926,-2.704
1772932311320.5127,-0.1127,-0.4369,-0.8703,4.445,-4.865,-2.502
1772932311320.5127,-0.1135,-0.4404,-0.8721,4.349,-5.04,-2.52
1772932311320.5127,-0.11,-0.4376,-0.8677,4.436,-5.189,-2.564
1772932311320.5127,-0.112,-0.4403,-0.8723,4.296,-5.154,-2.905
1772932311336.0442,-0.1113,-0.4422,-0.8738,3.999,-4.812,-2.958
1772932311336.0442,-0.1132,-0.4422,-0.8716,3.92,-4.664,-2.651
1772932311336.0442,-0.1155,-0.4446,-0.8701,3.955,-5.084,-2.467
1772932311336.0442,-0.1141,-0.4427,-0.8703,3.728,-4.952,-2.152
1772932311351.4136,-0.1115,-0.4438,-0.8708,4.025,-4.952,-1.881
1772932311351.4136,-0.1099,-0.443,-0.8735,3.929,-4.76,-1.776
1772932311351.4136,-0.1113,-0.4436,-0.8711,3.911,-5.075,-1.846
1772932311367.0378,-0.1112,-0.4412,-0.8725,3.92,-5.014,-1.593
1772932311367.0378,-0.1111,-0.4451,-0.8714,4.06,-4.865,-1.584
1772932311367.0378,-0.1114,-0.4422,-0.8715,4.104,-4.979,-1.496
1772932311367.0378,-0.1114,-0.4422,-0.8716,3.999,-4.716,-1.417
1772932311382.7668,-0.1096,-0.4432,-0.8732,3.999,-4.69,-1.356
1772932311382.7668,-0.1094,-0.4426,-0.8727,3.938,-4.751,-1.4
1772932311382.7668,-0.1108,-0.4399,-0.8707,4.008,-4.935,-1.549
1772932311382.7668,-0.1111,-0.4404,-0.8704,4.174,-4.9,-1.706
1772932311382.7668,-0.1143,-0.4407,-0.8696,4.156,-4.9,-1.75
1772932311398.7554,-0.1143,-0.4391,-0.8721,3.973,-4.926,-1.698
1772932311398.7554,-0.113,-0.4401,-0.8703,3.763,-4.839,-1.636
1772932311398.7554,-0.1141,-0.4404,-0.8723,4.156,-5.285,-1.724
1772932311398.7554,-0.114,-0.4404,-0.87,4.016,-4.804,-1.488
1772932311414.8384,-0.1128,-0.4382,-0.8695,4.48,-5.04,-1.785
1772932311414.8384,-0.1127,-0.44,-0.8707,4.156,-4.918,-1.54
1772932311414.8384,-0.1135,-0.444,-0.8709,4.244,-4.944,-1.496
1772932311414.8384,-0.1126,-0.4431,-0.8715,4.209,-4.996,-1.514
1772932311430.6072,-0.1127,-0.4427,-0.8694,4.008,-5.093,-1.286
1772932311430.6072,-0.1152,-0.4397,-0.8671,4.069,-4.839,-1.356
1772932311430.6072,-0.119,-0.4421,-0.8671,3.666,-4.97,-1.47
1772932311430.6072,-0.1161,-0.4433,-0.8674,3.833,-5.084,-1.61
1772932311447.1108,-0.1135,-0.443,-0.8667,3.946,-5.093,-1.846
1772932311447.1108,-0.1137,-0.4453,-0.8658,3.824,-5.022,-1.488
1772932311447.1108,-0.1133,-0.4451,-0.865,3.894,-5.075,-1.383
1772932311447.1108,-0.1116,-0.4422,-0.8642,3.763,-5.005,-1.225
1772932311447.1108,-0.1121,-0.4439,-0.8642,3.526,-4.804,-1.094
1772932311463.1777,-0.1136,-0.4419,-0.8651,3.561,-4.795,-1.076
1772932311463.1777,-0.1127,-0.4422,-0.8667,3.29,-5.162,-1.216
1772932311463.1777,-0.1128,-0.4413,-0.8644,3.246,-5.206,-1.155
1772932311463.1777,-0.1124,-0.4403,-0.8616,3.369,-4.795,-1.383
1772932311479.2363,-0.1094,-0.4412,-0.8672,3.29,-5.162,-1.75
1772932311479.2363,-0.1128,-0.4397,-0.8642,3.062,-5.014,-1.636
1772932311479.2363,-0.1143,-0.4398,-0.8641,2.94,-4.996,-1.505
1772932311494.8687,-0.1164,-0.4369,-0.8622,2.914,-4.856,-1.54
1772932311494.8687,-0.1207,-0.4396,-0.8665,2.59,-4.611,-1.409
1772932311494.8687,-0.1202,-0.44,-0.8711,2.756,-4.786,-1.409
1772932311494.8687,-0.1204,-0.442,-0.8707,3.08,-4.751,-1.479
1772932311509.998,-0.122,-0.4427,-0.8705,2.844,-4.664,-1.347
1772932311509.998,-0.1177,-0.4455,-0.8711,2.791,-4.69,-1.715
1772932311509.998,-0.1191,-0.4505,-0.8716,2.695,-4.751,-1.759
1772932311509.998,-0.1221,-0.4523,-0.8689,2.52,-4.629,-1.794
1772932311525.919,-0.1193,-0.4563,-0.8696,2.599,-4.471,-1.496
1772932311525.919,-0.1176,-0.4552,-0.8686,2.511,-4.524,-1.164
1772932311525.919,-0.1172,-0.452,-0.871,2.249,-4.76,-1.234
1772932311525.919,-0.1155,-0.4465,-0.8671,2.179,-4.804,-0.805
1772932311525.919,-0.1142,-0.4468,-0.8689,2.249,-4.83,-1.041
1772932311541.5964,-0.1127,-0.4442,-0.8675,2.047,-5.136,-1.059
1772932311541.5964,-0.1151,-0.4464,-0.8664,2.1,-5.049,-1.041
1772932311541.5964,-0.1127,-0.445,-0.8629,2.013,-5.285,-1.076
1772932311541.5964,-0.1098,-0.4409,-0.8656,1.811,-4.935,-0.814
1772932311557.0134,-0.1135,-0.4441,-0.8664,1.671,-4.874,-0.91
1772932311557.0134,-0.1161,-0.4446,-0.8657,1.645,-4.874,-1.12
1772932311557.0134,-0.1194,-0.4435,-0.8672,1.837,-5.145,-0.831
1772932311573.237,-0.1189,-0.4429,-0.8675,1.593,-4.961,-0.674
1772932311573.237,-0.1149,-0.4433,-0.8693,1.61,-5.338,-0.901
1772932311573.237,-0.119,-0.4432,-0.8694,1.654,-5.276,-1.173
1772932311573.237,-0.1167,-0.4459,-0.8685,1.514,-5.145,-1.251
1772932311589.0432,-0.1176,-0.4456,-0.8694,1.715,-5.224,-1.514
1772932311589.0432,-0.1169,-0.448,-0.8694,1.383,-5.731,-1.619
1772932311589.0432,-0.116,-0.4466,-0.8683,1.61,-5.644,-1.452
1772932311589.0432,-0.1164,-0.447,-0.8697,1.619,-5.88,-1.129
1772932311604.4668,-0.1154,-0.4435,-0.8685,1.846,-5.985,-1.146
1772932311604.4668,-0.1191,-0.4418,-0.8697,1.925,-5.67,-1.216
1772932311604.4668,-0.1177,-0.4406,-0.8719,1.706,-5.801,-0.91
1772932311604.4668,-0.1183,-0.4352,-0.8695,1.776,-5.889,-1.304
1772932311604.4668,-0.1188,-0.4355,-0.8696,1.732,-5.862,-1.295
1772932311619.6,-0.1192,-0.4356,-0.8694,1.96,-6.02,-1.4
1772932311619.6,-0.1175,-0.4372,-0.8653,1.689,-5.933,-1.531
1772932311619.6,-0.1166,-0.4364,-0.8628,1.89,-6.09,-1.881
1772932311619.6,-0.1182,-0.4335,-0.8641,1.663,-5.819,-1.907
1772932311635.7063,-0.1203,-0.4343,-0.8653,1.732,-5.836,-1.899
1772932311635.7063,-0.1191,-0.436,-0.8648,1.689,-5.714,-1.794
1772932311635.7063,-0.1194,-0.4365,-0.8601,2.056,-5.574,-1.837
1772932311635.7063,-0.1209,-0.4387,-0.8666,2.485,-5.478,-1.645
1772932311650.9263,-0.1206,-0.4396,-0.8633,2.748,-5.084,-1.715
1772932311650.9263,-0.1223,-0.4383,-0.8682,2.94,-5.215,-1.549
1772932311650.9263,-0.1216,-0.4344,-0.8664,3.001,-4.918,-1.505
1772932311665.8184,-0.1193,-0.4383,-0.8655,3.141,-4.769,-1.698
1772932311665.8184,-0.1189,-0.438,-0.8704,3.176,-4.786,-1.873
1772932311665.8184,-0.1218,-0.4439,-0.8674,2.931,-4.489,-1.759
1772932311665.8184,-0.1165,-0.4471,-0.8652,2.345,-4.629,-1.82
1772932311681.335,-0.1187,-0.4515,-0.8623,1.768,-5.084,-1.89
1772932311681.335,-0.1213,-0.4601,-0.8558,0.919,-5.364,-1.671
1772932311681.335,-0.1224,-0.4532,-0.8555,0.507,-5.224,-1.663
1772932311681.335,-0.1289,-0.4448,-0.8549,0.289,-5.32,-1.785
1772932311696.919,-0.1272,-0.4426,-0.856,0.875,-5.364,-2.03
1772932311696.919,-0.1288,-0.4436,-0.8535,1.216,-5.705,-1.645
1772932311696.919,-0.1253,-0.4348,-0.8562,2.109,-5.705,-1.4
1772932311696.919,-0.1248,-0.422,-0.8641,3.587,-5.224,-1.234
1772932311696.919,-0.1251,-0.4175,-0.8708,4.532,-4.979,-1.006
1772932311713.0193,-0.1189,-0.4219,-0.8764,5.294,-2.257,-0.989
1772932311713.0193,-0.1151,-0.4276,-0.8786,5.224,-4.147,-0.919
1772932311713.0193,-0.105,-0.4357,-0.8857,4.454,-3.868,-0.455
1772932311713.0193,-0.1006,-0.4374,-0.8867,3.701,-3.876,-0.691
1772932311729.2786,-0.0997,-0.4366,-0.8865,2.993,-4.34,-0.989
1772932311729.2786,-0.0994,-0.4395,-0.8823,2.546,-4.804,-1.383
1772932311729.2786,-0.1021,-0.4436,-0.8761,2.249,-2.45,-1.846
1772932311744.8127,-0.1067,-0.4507,-0.8692,1.829,-4.506,-1.768
1772932311744.8127,-0.1058,-0.4583,-0.8619,1.68,-4.629,-1.741
1772932311744.8127,-0.1057,-0.4588,-0.8634,1.242,-4.296,-1.304
1772932311744.8127,-0.1071,-0.4562,-0.8601,0.823,-4.051,-0.892
1772932311760.8506,-0.1089,-0.4557,-0.8619,0.726,-4.034,-0.971
1772932311760.8506,-0.1111,-0.4521,-0.8577,0.297,-4.436,-0.91
1772932311760.8506,-0.1172,-0.4482,-0.8574,0.507,-4.646,-1.085
1772932311760.8506,-0.1232,-0.4413,-0.859,0.91,-4.769,-1.435
1772932311775.8845,-0.1266,-0.4372,-0.8638,1.312,-4.629,-1.663
1772932311775.8845,-0.1282,-0.4363,-0.8626,1.837,-4.594,-1.242
1772932311775.8845,-0.1296,-0.4345,-0.8672,2.52,-4.638,-1.374
1772932311775.8845,-0.1322,-0.4347,-0.8755,2.826,-4.804,-1.234
1772932311775.8845,-0.1298,-0.4312,-0.8785,2.634,-4.532,-1.12
1772932311791.4138,-0.131,-0.4345,-0.8861,2.564,-4.664,-1.505
1772932311791.4138,-0.1307,-0.4378,-0.8902,2.039,-4.874,-1.522
1772932311791.4138,-0.1276,-0.4453,-0.8879,1.356,-5.154,-1.339
1772932311791.4138,-0.125,-0.4501,-0.8829,0.647,-5.556,-1.321
1772932311807.0742,-0.1192,-0.451,-0.8797,-0.306,-6.221,-1.094
1772932311807.0742,-0.1173,-0.4494,-0.8693,-0.866,-6.536,-0.971
1772932311807.0742,-0.1148,-0.4491,-0.8668,-0.656,-6.204,-0.429
1772932311823.0356,-0.1137,-0.4471,-0.8629,-0.131,-6.029,-0.228
1772932311823.0356,-0.1124,-0.4432,-0.8661,0.569,-5.959,0.009
1772932311823.0356,-0.1152,-0.4427,-0.8633,1.155,-5.714,-0.035
1772932311823.0356,-0.1128,-0.4383,-0.8633,2.004,-5.556,0.0
1772932311838.706,-0.1141,-0.4358,-0.8656,2.214,-5.04,0.0
1772932311838.706,-0.117,-0.4307,-0.8661,2.879,-5.11,-0.306
1772932311838.706,-0.11,-0.43,-0.8631,3.351,-4.629,-0.385
1772932311838.706,-0.1087,-0.4336,-0.863,3.316,-4.244,-0.464
1772932311854.2444,-0.103,-0.437,-0.8624,3.894,-3.78,-0.534
1772932311854.2444,-0.1003,-0.4333,-0.8605,3.561,-3.806,-0.805
1772932311854.2444,-0.1032,-0.4324,-0.8596,3.264,-3.719,-0.77
1772932311854.2444,-0.1054,-0.4315,-0.861,3.395,-3.754,-0.998
1772932311854.2444,-0.1114,-0.4301,-0.8625,3.377,-3.868,-1.426
1772932311869.7896,-0.1173,-0.4275,-0.8626,3.447,-4.183,-1.645
1772932311869.7896,-0.122,-0.4256,-0.8677,3.614,-4.419,-2.03
1772932311869.7896,-0.126,-0.424,-0.8652,3.763,-4.786,-2.249
1772932311869.7896,-0.1262,-0.4259,-0.8666,3.736,-4.821,-2.389
1772932311885.3318,-0.1266,-0.4239,-0.8701,3.78,-4.883,-2.328
1772932311885.3318,-0.1291,-0.426,-0.8731,3.859,-5.066,-2.275
1772932311885.3318,-0.129,-0.4293,-0.8682,3.78,-4.716,-2.109
1772932311885.3318,-0.1283,-0.4291,-0.8718,4.077,-5.084,-2.065
1772932311900.4846,-0.1264,-0.4333,-0.871,3.833,-5.215,-1.811
1772932311900.4846,-0.1246,-0.4393,-0.8724,3.596,-5.066,-1.689
1772932311900.4846,-0.1205,-0.4401,-0.8716,3.334,-4.734,-1.225
1772932311916.077,-0.1175,-0.4428,-0.8746,3.167,-4.952,-1.225
1772932311916.077,-0.1162,-0.4434,-0.8728,3.167,-4.909,-1.006
1772932311916.077,-0.1136,-0.4473,-0.8725,3.036,-4.734,-0.735
1772932311916.077,-0.1114,-0.4459,-0.8724,3.272,-5.058,-0.639
1772932311931.9675,-0.1111,-0.4477,-0.8725,3.377,-4.865,-0.963
1772932311931.9675,-0.1055,-0.4446,-0.8699,3.089,-4.786,-0.849
1772932311931.9675,-0.107,-0.4443,-0.8694,3.36,-4.681,-1.05
1772932311931.9675,-0.1052,-0.4435,-0.8707,3.255,-5.005,-1.173
1772932311948.0015,-0.1042,-0.438,-0.8697,3.185,-4.926,-1.286
1772932311948.0015,-0.1064,-0.4356,-0.8688,3.08,-4.821,-1.706
1772932311948.0015,-0.1083,-0.4348,-0.8688,2.896,-4.699,-1.855
1772932311948.0015,-0.1129,-0.4343,-0.8687,2.529,-4.926,-1.925
1772932311948.0015,-0.1132,-0.4355,-0.8683,2.502,-4.795,-1.89
1772932311963.1794,-0.1143,-0.4353,-0.867,2.721,-4.742,-1.942
1772932311963.1794,-0.1143,-0.4369,-0.8677,2.774,-4.707,-2.118
1772932311963.1794,-0.1157,-0.438,-0.87,2.669,-4.76,-2.039
1772932311963.1794,-0.118,-0.4381,-0.8701,2.721,-4.848,-2.047
1772932311979.326,-0.115,-0.4399,-0.8722,2.905,-4.944,-2.056
1772932311979.326,-0.1184,-0.4388,-0.874,3.027,-5.136,-2.083
1772932311979.326,-0.1158,-0.442,-0.8767,3.482,-5.145,-1.82
1772932311994.761,-0.1154,-0.4409,-0.8728,3.666,-5.294,-1.75
1772932311994.761,-0.1173,-0.4433,-0.8728,3.71,-5.232,-1.321
1772932311994.761,-0.1154,-0.4448,-0.8714,3.964,-5.548,-1.409
1772932311994.761,-0.1157,-0.4463,-0.8783,3.946,-5.268,-0.787
1772932312010.811,-0.1136,-0.4379,-0.8778,4.27,-5.294,-0.586
1772932312010.811,-0.1153,-0.4371,-0.8777,4.253,-5.276,-0.542
1772932312010.811,-0.1154,-0.4403,-0.8794,4.191,-5.46,-0.341
1772932312010.811,-0.1127,-0.4352,-0.8793,4.086,-5.548,-0.394
1772932312026.9155,-0.1118,-0.4338,-0.8754,4.025,-6.116,-0.726
1772932312026.9155,-0.1105,-0.4346,-0.8746,4.008,-6.072,-1.032
1772932312026.9155,-0.1091,-0.4362,-0.8696,3.623,-5.95,-1.593
1772932312026.9155,-0.109,-0.4357,-0.8683,3.089,-5.766,-1.811
1772932312026.9155,-0.1093,-0.4347,-0.8658,2.66,-5.906,-1.925
1772932312042.455,-0.1084,-0.4383,-0.8631,2.765,-5.801,-2.345
1772932312042.455,-0.1083,-0.4376,-0.8621,2.94,-5.915,-1.96
1772932312042.455,-0.1078,-0.4415,-0.8603,2.905,-5.434,-1.969
1772932312042.455,-0.1074,-0.4418,-0.8569,3.054,-5.101,-1.601
1772932312057.7163,-0.1097,-0.4382,-0.862,3.264,-5.197,-1.768
1772932312057.7163,-0.1099,-0.4358,-0.8678,3.141,-4.839,-2.013
1772932312057.7163,-0.1113,-0.438,-0.8663,3.08,-4.804,-2.214
1772932312057.7163,-0.1138,-0.4338,-0.8683,3.229,-4.856,-2.074
1772932312073.3018,-0.1147,-0.4394,-0.8678,3.159,-5.346,-2.126
1772932312073.3018,-0.1127,-0.4401,-0.8688,3.098,-5.084,-2.24
1772932312073.3018,-0.1094,-0.4443,-0.8702,3.045,-5.154,-2.266
1772932312088.879,-0.1099,-0.4473,-0.8718,3.08,-5.093,-1.811
1772932312088.879,-0.1102,-0.4463,-0.8678,2.853,-5.39,-1.899
1772932312088.879,-0.1102,-0.4446,-0.8696,2.765,-5.574,-1.741
1772932312088.879,-0.1101,-0.4469,-0.8701,2.975,-5.268,-1.593
1772932312103.9238,-0.1113,-0.4457,-0.8701,3.237,-5.591,-1.706
1772932312103.9238,-0.1083,-0.4421,-0.8686,3.185,-5.434,-1.391
1772932312103.9238,-0.1124,-0.441,-0.868,3.36,-5.206,-1.26
1772932312103.9238,-0.1117,-0.4405,-0.8673,3.902,-5.197,-1.54
1772932312103.9238,-0.1127,-0.439,-0.8672,4.156,-5.451,-1.671
1772932312119.0474,-0.1129,-0.4385,-0.8667,4.086,-5.372,-1.444
1772932312119.0474,-0.1104,-0.4373,-0.8661,4.016,-4.926,-1.715
1772932312119.0474,-0.1112,-0.4354,-0.868,4.218,-4.795,-1.645
1772932312119.0474,-0.1091,-0.4352,-0.8685,4.2,-4.638,-1.584
1772932312134.6504,-0.1113,-0.4355,-0.8705,4.112,-4.751,-1.846
1772932312134.6504,-0.1109,-0.4384,-0.8714,3.806,-4.751,-1.899
1772932312134.6504,-0.1089,-0.4407,-0.87,3.719,-4.629,-2.047
1772932312150.4941,-0.108,-0.4428,-0.8705,3.675,-4.874,-1.89
1772932312150.4941,-0.1082,-0.4404,-0.8714,3.255,-4.725,-1.619
1772932312150.4941,-0.11,-0.4422,-0.8719,3.605,-4.716,-1.794
1772932312150.4941,-0.1094,-0.4424,-0.8743,3.106,-5.014,-1.934
1772932312166.9968,-0.1099,-0.4433,-0.8721,3.281,-5.11,-1.785
1772932312166.9968,-0.1121,-0.4466,-0.8715,3.203,-5.285,-1.855
1772932312166.9968,-0.1108,-0.4467,-0.8692,2.861,-4.918,-1.663
1772932312166.9968,-0.1107,-0.4454,-0.8714,2.756,-4.874,-1.768
1772932312182.3604,-0.1086,-0.4465,-0.8714,2.774,-4.935,-1.549
1772932312182.3604,-0.1124,-0.4463,-0.8664,2.695,-4.769,-1.339
1772932312182.3604,-0.1104,-0.4438,-0.8661,2.861,-5.049,-1.374
1772932312182.3604,-0.1096,-0.4416,-0.8714,2.791,-4.76,-1.304
1772932312198.0183,-0.1137,-0.4419,-0.868,2.853,-4.839,-1.776
1772932312198.0183,-0.1113,-0.4388,-0.8703,2.66,-5.162,-1.68
1772932312198.0183,-0.1091,-0.4368,-0.8703,2.748,-5.224,-1.61
1772932312198.0183,-0.1095,-0.4384,-0.8682,2.739,-5.399,-2.013
1772932312198.0183,-0.1083,-0.4365,-0.8688,2.853,-5.084,-2.152
1772932312213.5422,-0.1104,-0.4375,-0.8695,2.783,-5.364,-2.196
1772932312213.5422,-0.1077,-0.4403,-0.8693,2.87,-5.119,-2.126
1772932312213.5422,-0.1086,-0.4444,-0.8685,2.712,-5.215,-2.38
1772932312213.5422,-0.1102,-0.4429,-0.8666,2.695,-5.504,-2.179
1772932312229.2676,-0.1133,-0.4422,-0.8657,2.817,-5.171,-2.118
1772932312229.2676,-0.1135,-0.4421,-0.8655,2.922,-5.232,-1.925
1772932312229.2676,-0.1154,-0.4413,-0.8685,3.106,-5.259,-1.698
1772932312244.5686,-0.1153,-0.4426,-0.8694,3.036,-5.434,-1.724
1772932312244.5686,-0.1139,-0.4438,-0.8691,2.984,-5.355,-1.549
1772932312244.5686,-0.1157,-0.4387,-0.8677,3.115,-5.399,-1.54
1772932312244.5686,-0.1133,-0.4439,-0.8692,2.686,-5.46,-1.347
1772932312260.1123,-0.1133,-0.4401,-0.8705,3.062,-4.996,-1.181
1772932312260.1123,-0.116,-0.4422,-0.8729,3.01,-5.197,-1.12
1772932312260.1123,-0.1164,-0.4441,-0.8719,2.87,-5.04,-1.321
1772932312260.1123,-0.1163,-0.4444,-0.871,2.607,-5.11,-1.26
1772932312275.5315,-0.1159,-0.4451,-0.8729,2.389,-5.276,-1.12
1772932312275.5315,-0.1182,-0.4438,-0.8725,2.607,-5.294,-1.085
1772932312275.5315,-0.1171,-0.4396,-0.8754,2.643,-5.617,-0.919
1772932312275.5315,-0.1137,-0.4379,-0.873,2.433,-5.39,-0.963
1772932312275.5315,-0.1135,-0.4398,-0.8723,2.564,-5.548,-1.566
1772932312291.5305,-0.1132,-0.4425,-0.8699,2.686,-5.548,-1.391
1772932312291.5305,-0.1099,-0.4419,-0.8708,2.765,-5.784,-1.575
1772932312291.5305,-0.1102,-0.4413,-0.8666,2.756,-5.714,-1.461
1772932312291.5305,-0.1105,-0.441,-0.8647,2.774,-5.836,-1.776
1772932312306.7034,-0.1116,-0.4403,-0.8672,2.87,-5.871,-1.82
1772932312306.7034,-0.1125,-0.4392,-0.8663,2.844,-5.766,-1.811
1772932312306.7034,-0.1107,-0.4391,-0.8675,3.185,-5.714,-1.776
1772932312321.4883,-0.1139,-0.4405,-0.8668,3.211,-5.723,-1.855
1772932312321.4883,-0.1146,-0.438,-0.8657,3.01,-5.539,-1.514
1772932312321.4883,-0.1114,-0.4396,-0.8677,3.106,-5.635,-1.225
1772932312321.4883,-0.1146,-0.4399,-0.8688,3.36,-5.6,-0.936
1772932312337.0466,-0.1123,-0.4408,-0.866,3.386,-5.451,-1.067
1772932312337.0466,-0.1096,-0.4391,-0.8663,3.211,-5.521,-1.041
1772932312337.0466,-0.1096,-0.4403,-0.8677,3.01,-5.67,-1.339
1772932312337.0466,-0.1089,-0.4371,-0.8687,3.027,-5.635,-1.514
1772932312353.389,-0.1069,-0.4401,-0.8707,2.958,-5.574,-1.347
1772932312353.389,-0.1094,-0.44,-0.868,2.896,-5.705,-1.251
1772932312353.389,-0.1107,-0.441,-0.8653,2.931,-5.469,-1.409
1772932312353.389,-0.1109,-0.4383,-0.8661,3.115,-5.731,-1.356
1772932312353.389,-0.11,-0.4391,-0.8695,3.194,-5.294,-1.829
1772932312368.9622,-0.1121,-0.4422,-0.8692,3.159,-5.416,-1.522
1772932312368.9622,-0.11,-0.4424,-0.8664,3.071,-5.268,-1.347
1772932312368.9622,-0.1118,-0.4424,-0.8703,3.027,-5.521,-1.4
1772932312368.9622,-0.1141,-0.444,-0.871,2.748,-5.119,-1.654
1772932312385.0508,-0.1161,-0.4437,-0.8699,3.106,-5.128,-1.601
1772932312385.0508,-0.1152,-0.4443,-0.8705,2.739,-5.425,-1.802
1772932312385.0508,-0.1154,-0.4482,-0.8696,2.783,-5.154,-1.286
1772932312385.0508,-0.1128,-0.4472,-0.8688,2.853,-5.46,-1.54
1772932312401.1382,-0.111,-0.446,-0.8677,2.835,-5.556,-1.295
1772932312401.1382,-0.1116,-0.4448,-0.87,2.958,-5.696,-1.391
1772932312401.1382,-0.1142,-0.445,-0.8694,3.062,-5.469,-1.19
1772932312416.689,-0.1117,-0.441,-0.87,3.194,-5.705,-1.225
1772932312416.689,-0.115,-0.4412,-0.8703,3.369,-5.338,-1.032
1772932312416.689,-0.1127,-0.4403,-0.8689,3.22,-5.67,-0.875
1772932312416.689,-0.1114,-0.439,-0.8672,3.062,-5.696,-1.015
1772932312432.7876,-0.111,-0.4385,-0.87,3.255,-5.626,-1.278
1772932312432.7876,-0.1142,-0.4336,-0.8688,2.931,-5.6,-1.356
1772932312432.7876,-0.1127,-0.4355,-0.8694,3.001,-5.635,-1.365
1772932312432.7876,-0.114,-0.4363,-0.866,2.993,-5.582,-1.496
1772932312448.8179,-0.1128,-0.437,-0.8688,2.949,-5.609,-1.505
1772932312448.8179,-0.1127,-0.438,-0.8694,2.914,-5.819,-1.409
1772932312448.8179,-0.1122,-0.4396,-0.8695,2.984,-5.88,-1.444
1772932312448.8179,-0.1094,-0.44,-0.8674,3.045,-5.897,-1.61
1772932312448.8179,-0.1103,-0.4418,-0.8688,2.888,-5.985,-1.829
1772932312464.8433,-0.111,-0.4431,-0.8679,3.176,-5.933,-1.846
1772932312464.8433,-0.108,-0.4446,-0.8688,2.87,-6.037,-1.969
1772932312464.8433,-0.1083,-0.4449,-0.8707,2.966,-5.521,-1.986
1772932312464.8433,-0.113,-0.4452,-0.8678,2.66,-5.775,-1.864
1772932312480.375,-0.1145,-0.4452,-0.868,2.87,-5.565,-1.864
1772932312480.375,-0.1135,-0.4423,-0.871,3.036,-5.775,-1.724
1772932312480.375,-0.1126,-0.4438,-0.8696,2.817,-5.723,-1.715
1772932312480.375,-0.1121,-0.4439,-0.8713,2.791,-5.617,-1.566
1772932312495.904,-0.1136,-0.4415,-0.8686,3.045,-5.933,-1.715
1772932312495.904,-0.111,-0.4413,-0.8687,3.019,-5.749,-1.794
1772932312495.904,-0.1124,-0.4426,-0.8699,2.739,-5.889,-1.698
1772932312511.4644,-0.1136,-0.4427,-0.8678,2.748,-5.714,-1.505
1772932312511.4644,-0.1149,-0.4414,-0.8713,2.634,-5.688,-1.505
1772932312511.4644,-0.1144,-0.4421,-0.8691,2.835,-5.705,-1.706
1772932312511.4644,-0.1145,-0.441,-0.8688,3.001,-5.854,-1.715
1772932312527.0334,-0.1144,-0.4407,-0.8675,2.844,-5.801,-1.724
1772932312527.0334,-0.1153,-0.4439,-0.8663,2.73,-5.539,-1.426
1772932312527.0334,-0.1132,-0.4418,-0.8681,2.809,-5.723,-1.522
1772932312527.0334,-0.1139,-0.443,-0.8665,2.511,-5.478,-1.452
1772932312527.0334,-0.1125,-0.4394,-0.8662,2.704,-5.688,-1.33
1772932312542.3855,-0.1157,-0.4393,-0.8668,2.861,-5.723,-1.286
1772932312542.3855,-0.1138,-0.4402,-0.8668,2.791,-5.714,-1.286
1772932312542.3855,-0.1125,-0.4391,-0.868,2.835,-5.758,-1.304
1772932312542.3855,-0.1082,-0.4403,-0.8685,2.678,-5.574,-1.452
1772932312558.0684,-0.1082,-0.4407,-0.8661,2.861,-5.915,-1.619
1772932312558.0684,-0.1073,-0.4392,-0.8668,2.634,-5.897,-1.724
1772932312558.0684,-0.1078,-0.4383,-0.8655,2.748,-5.766,-1.522
1772932312558.0684,-0.1099,-0.4406,-0.8664,2.678,-5.819,-1.768
1772932312573.105,-0.1099,-0.4423,-0.8672,2.896,-5.88,-1.916
1772932312573.105,-0.1081,-0.4427,-0.8655,2.844,-5.609,-1.978
1772932312573.105,-0.1086,-0.4437,-0.8641,2.8,-5.819,-1.925
1772932312588.7244,-0.1114,-0.4412,-0.8657,2.564,-5.513,-1.671
1772932312588.7244,-0.1118,-0.4441,-0.8656,2.984,-5.617,-1.706
1772932312588.7244,-0.1091,-0.4429,-0.8668,2.896,-5.32,-1.409
1772932312588.7244,-0.1114,-0.4414,-0.8682,3.159,-5.407,-1.698
1772932312603.7678,-0.1146,-0.4415,-0.8684,2.958,-5.486,-1.269
1772932312603.7678,-0.1124,-0.4421,-0.8682,3.089,-5.513,-0.945
1772932312603.7678,-0.1135,-0.4422,-0.8673,2.643,-5.556,-1.137
1772932312603.7678,-0.1125,-0.4413,-0.8666,2.8,-5.372,-1.426
1772932312603.7678,-0.11,-0.4415,-0.866,2.669,-5.495,-1.531
1772932312618.8203,-0.1133,-0.4379,-0.8696,2.511,-5.416,-1.601
1772932312618.8203,-0.1149,-0.4372,-0.8685,2.739,-5.609,-1.514
1772932312618.8203,-0.1116,-0.4395,-0.869,2.809,-5.705,-1.269
1772932312618.8203,-0.1122,-0.4401,-0.869,2.721,-5.67,-1.907
1772932312633.8042,-0.1107,-0.4424,-0.8678,2.695,-5.617,-1.671
1772932312633.8042,-0.1107,-0.4422,-0.8702,2.415,-5.539,-1.452
1772932312633.8042,-0.1102,-0.442,-0.8697,2.765,-5.749,-1.715
1772932312649.8203,-0.1071,-0.4421,-0.8688,2.844,-5.513,-1.575
1772932312649.8203,-0.1092,-0.4419,-0.8691,2.958,-5.548,-1.435
1772932312649.8203,-0.1118,-0.4416,-0.8681,3.229,-5.635,-1.627
1772932312649.8203,-0.0939,-0.4435,-0.8703,3.237,-5.434,-1.461
1772932312664.8713,-0.1094,-0.4429,-0.8689,3.124,-5.591,-1.531
1772932312664.8713,-0.1084,-0.4413,-0.8703,3.29,-5.845,-1.356
1772932312664.8713,-0.1096,-0.442,-0.8704,3.194,-5.548,-1.356
1772932312664.8713,-0.1108,-0.4401,-0.8701,3.255,-5.749,-1.312
1772932312680.4165,-0.1107,-0.4403,-0.8702,3.194,-5.635,-1.452
1772932312680.4165,-0.1111,-0.4374,-0.8703,3.124,-5.644,-1.916
1772932312680.4165,-0.1128,-0.4371,-0.8686,2.756,-5.705,-1.864
1772932312680.4165,-0.111,-0.4391,-0.8679,2.966,-5.661,-1.855
1772932312695.8933,-0.1126,-0.439,-0.866,2.861,-5.793,-1.934
1772932312695.8933,-0.1122,-0.4432,-0.8663,2.844,-5.784,-1.951
1772932312695.8933,-0.1106,-0.444,-0.8675,2.94,-5.714,-1.873
1772932312711.4636,-0.1102,-0.4454,-0.8666,2.38,-5.758,-1.916
1772932312711.4636,-0.113,-0.4452,-0.8674,2.581,-5.696,-1.794
1772932312711.4636,-0.1108,-0.4465,-0.8677,2.616,-5.609,-1.558
1772932312711.4636,-0.1158,-0.4464,-0.8702,2.66,-6.143,-1.417
1772932312711.4636,-0.1149,-0.4478,-0.8704,2.441,-5.845,-1.365
1772932312726.7876,-0.1121,-0.449,-0.868,2.581,-5.793,-1.12
1772932312726.7876,-0.1148,-0.4473,-0.8696,2.284,-5.95,-0.849
1772932312726.7876,-0.1158,-0.4451,-0.8671,2.24,-6.16,-0.718
1772932312726.7876,-0.1126,-0.4405,-0.8666,2.301,-6.081,-0.98
1772932312742.3286,-0.1122,-0.4419,-0.8673,2.511,-6.029,-1.286
1772932312742.3286,-0.1122,-0.4412,-0.8651,2.249,-6.265,-1.225
1772932312742.3286,-0.11,-0.4361,-0.8688,2.712,-6.213,-1.304
1772932312742.3286,-0.109,-0.4217,-0.8694,2.669,-5.941,-1.488
1772932312757.931,-0.1096,-0.4368,-0.8667,2.94,-6.064,-1.619
1772932312757.931,-0.1101,-0.4378,-0.8652,2.949,-5.854,-1.488
1772932312757.931,-0.1106,-0.4426,-0.8702,2.835,-5.18,-1.619
1772932312757.931,-0.111,-0.4434,-0.8674,2.704,-5.574,-1.409
1772932312773.2085,-0.1091,-0.4451,-0.8702,2.389,-5.093,-1.461
1772932312773.2085,-0.1055,-0.448,-0.8686,1.934,-5.521,-1.496
1772932312773.2085,-0.1074,-0.4529,-0.8634,1.549,-5.854,-1.549
1772932312788.7861,-0.1092,-0.4563,-0.8581,0.761,-6.081,-1.759
1772932312788.7861,-0.113,-0.4527,-0.8569,0.455,-5.95,-2.013
1772932312788.7861,-0.1168,-0.4402,-0.8614,0.892,-6.274,-2.047
1772932312788.7861,-0.1193,-0.4433,-0.8581,1.304,-6.143,-1.925
1772932312804.853,-0.1188,-0.4458,-0.8595,1.724,-6.58,-1.426
1772932312804.853,-0.1205,-0.429,-0.8644,2.826,-6.247,-1.094
1772932312804.853,-0.1244,-0.4224,-0.8716,4.156,-5.609,-1.234
1772932312804.853,-0.1222,-0.4285,-0.8766,5.005,-5.197,-1.05
1772932312804.853,-0.1164,-0.4327,-0.8836,5.215,-4.55,-0.796
1772932312821.3206,-0.1089,-0.4379,-0.8874,4.716,-3.973,-0.551
1772932312821.3206,-0.1083,-0.4412,-0.888,4.112,-4.497,-0.507
1772932312821.3206,-0.1038,-0.4429,-0.8864,2.896,-4.777,-0.595
1772932312821.3206,-0.1013,-0.4419,-0.8822,1.986,-4.541,-0.796
1772932312836.9053,-0.1062,-0.4422,-0.8772,1.916,-4.865,-0.84
1772932312836.9053,-0.1088,-0.4432,-0.8713,1.951,-5.11,-1.173
1772932312836.9053,-0.1091,-0.4497,-0.8657,1.417,-5.128,-0.91
1772932312836.9053,-0.1113,-0.4526,-0.8617,0.954,-4.786,-0.927
1772932312853.4685,-0.1085,-0.4514,-0.8579,0.814,-4.62,-0.831
1772932312853.4685,-0.1106,-0.4493,-0.8563,0.228,-4.996,-0.7
1772932312853.4685,-0.1114,-0.4473,-0.8549,0.14,-5.25,-0.639
1772932312853.4685,-0.1166,-0.4421,-0.8536,0.131,-5.031,-0.639
1772932312853.4685,-0.1196,-0.438,-0.8522,0.481,-5.425,-1.032
1772932312868.668,-0.1182,-0.4329,-0.8563,1.452,-5.32,-1.26
1772932312868.668,-0.1207,-0.4337,-0.8585,1.969,-5.101,-1.251
1772932312868.668,-0.1213,-0.4335,-0.8616,2.643,-5.171,-1.295
1772932312868.668,-0.1219,-0.4328,-0.8683,2.853,-4.979,-1.181
1772932312883.7073,-0.121,-0.4339,-0.876,3.246,-5.206,-1.103
1772932312883.7073,-0.1185,-0.4365,-0.8812,3.229,-5.04,-0.936
1772932312883.7073,-0.1177,-0.4401,-0.8875,2.817,-5.11,-1.208
1772932312899.7449,-0.1168,-0.4449,-0.8919,2.109,-5.74,-1.05
1772932312899.7449,-0.1155,-0.4509,-0.8907,1.278,-6.072,-1.041
1772932312899.7449,-0.1106,-0.453,-0.8874,0.254,-6.309,-0.814
1772932312899.7449,-0.1102,-0.4562,-0.8822,-0.122,-6.737,-0.499
1772932312915.2942,-0.1088,-0.4497,-0.8763,-0.105,-6.457,0.0
1772932312915.2942,-0.1069,-0.4473,-0.8726,0.175,-6.755,0.122
1772932312915.2942,-0.1087,-0.445,-0.8704,0.709,-6.737,0.122
1772932312915.2942,-0.1067,-0.4403,-0.8689,1.47,-6.589,-0.122
1772932312930.83,-0.1069,-0.4372,-0.8686,1.802,-6.344,-0.263
1772932312930.83,-0.1111,-0.4347,-0.8671,2.196,-6.221,-0.297
1772932312930.83,-0.1141,-0.4316,-0.8669,2.572,-5.67,-0.691
1772932312930.83,-0.1143,-0.4267,-0.866,2.958,-5.276,-1.032
1772932312946.8726,-0.1143,-0.4276,-0.8667,3.465,-5.268,-1.015
1772932312946.8726,-0.1132,-0.4284,-0.8623,3.57,-4.961,-1.444
1772932312946.8726,-0.1074,-0.4315,-0.8597,3.631,-4.865,-1.986
1772932312946.8726,-0.1035,-0.4342,-0.858,3.316,-4.463,-2.17
1772932312946.8726,-0.1091,-0.4346,-0.8611,3.089,-4.506,-2.109
1772932312961.9514,-0.1103,-0.4368,-0.8634,2.888,-4.401,-2.118
1772932312961.9514,-0.115,-0.4374,-0.8646,2.975,-4.655,-2.31
1772932312961.9514,-0.1217,-0.4372,-0.8625,2.922,-4.314,-1.864
1772932312976.9907,-0.1261,-0.4358,-0.8673,3.027,-4.559,-1.794
1772932312976.9907,-0.1254,-0.4377,-0.8682,3.089,-4.497,-2.091
1772932312976.9907,-0.1269,-0.4375,-0.87,3.185,-4.848,-1.995
1772932312976.9907,-0.129,-0.4371,-0.8732,2.835,-5.162,-1.846
1772932312993.5337,-0.1284,-0.4348,-0.8755,2.748,-5.407,-1.776
1772932312993.5337,-0.1265,-0.4327,-0.8733,2.572,-5.364,-1.925
1772932312993.5337,-0.1263,-0.4318,-0.8706,2.52,-5.582,-1.899
1772932312993.5337,-0.1256,-0.4335,-0.8717,2.179,-5.442,-1.907
1772932313008.6326,-0.1255,-0.4344,-0.8686,2.179,-5.548,-1.82
1772932313008.6326,-0.1216,-0.4331,-0.8689,1.951,-5.679,-1.706
1772932313008.6326,-0.1145,-0.4339,-0.8673,2.196,-5.591,-2.004
1772932313008.6326,-0.1132,-0.4358,-0.8639,2.45,-5.574,-2.056
1772932313024.7244,-0.1125,-0.4325,-0.8626,2.336,-5.635,-2.109
1772932313024.7244,-0.1122,-0.4337,-0.8631,2.152,-5.399,-1.811
1772932313024.7244,-0.1124,-0.4363,-0.8655,2.494,-5.005,-2.144
1772932313024.7244,-0.1155,-0.4371,-0.8651,2.581,-4.865,-2.284
1772932313024.7244,-0.1161,-0.4387,-0.8664,2.931,-5.04,-2.397
1772932313040.0586,-0.1229,-0.4385,-0.8688,2.712,-4.821,-2.546
1772932313040.0586,-0.1196,-0.4361,-0.8683,2.555,-5.136,-2.651
1772932313055.2126,-0.1233,-0.436,-0.87,2.922,-5.075,-2.686
1772932313055.2126,-0.125,-0.4401,-0.8679,2.931,-5.084,-2.669
1772932313055.2126,-0.1277,-0.4388,-0.8699,3.15,-5.425,-2.03
1772932313055.2126,-0.1272,-0.4374,-0.8685,3.36,-5.46,-1.978
1772932313055.2126,-0.1255,-0.438,-0.8707,3.106,-5.495,-1.846
1772932313071.5347,-0.1243,-0.438,-0.8693,3.159,-5.372,-1.916
1772932313071.5347,-0.1222,-0.4379,-0.8726,3.36,-5.451,-1.934
1772932313071.5347,-0.1216,-0.4345,-0.8708,3.211,-5.346,-1.741
1772932313071.5347,-0.123,-0.4324,-0.8708,3.64,-5.749,-2.1
1772932313087.6584,-0.1204,-0.431,-0.871,3.395,-5.504,-2.257
1772932313087.6584,-0.1174,-0.43,-0.8707,3.29,-5.635,-2.336
1772932313087.6584,-0.1147,-0.4322,-0.8714,3.526,-5.784,-2.634
1772932313087.6584,-0.1139,-0.4338,-0.8664,3.386,-5.565,-2.817
1772932313103.7346,-0.1124,-0.4309,-0.8671,3.299,-5.25,-2.888
1772932313103.7346,-0.1124,-0.4298,-0.8705,3.561,-5.565,-3.264
1772932313103.7346,-0.1106,-0.4345,-0.8736,3.587,-5.521,-3.036
1772932313103.7346,-0.1117,-0.4429,-0.8739,3.342,-5.635,-2.984
1772932313103.7346,-0.1115,-0.4432,-0.8719,3.316,-5.574,-2.625
1772932313118.8303,-0.1066,-0.4455,-0.8724,3.272,-5.6,-2.564
1772932313118.8303,-0.1046,-0.4488,-0.8708,3.08,-5.775,-2.66
1772932313118.8303,-0.1044,-0.4479,-0.8684,2.634,-5.652,-2.896
1772932313118.8303,-0.1025,-0.4523,-0.8669,2.319,-5.88,-3.045
1772932313134.8726,-0.1038,-0.45,-0.8675,2.721,-6.195,-3.027
1772932313134.8726,-0.1049,-0.4506,-0.8673,2.835,-6.029,-2.809
1772932313134.8726,-0.1049,-0.4501,-0.8652,3.001,-5.81,-2.8
1772932313134.8726,-0.1046,-0.4471,-0.8666,3.229,-5.635,-2.406
1772932313150.4558,-0.1058,-0.4466,-0.8652,3.666,-5.609,-2.135
1772932313150.4558,-0.1068,-0.4457,-0.8699,3.71,-5.53,-1.942
1772932313150.4558,-0.1097,-0.4393,-0.8705,3.981,-5.486,-1.864
1772932313165.9976,-0.1085,-0.4392,-0.8702,3.902,-5.416,-1.768
1772932313165.9976,-0.1088,-0.436,-0.8737,3.666,-5.46,-2.039
1772932313165.9976,-0.1095,-0.4373,-0.8702,3.684,-5.407,-1.864
1772932313165.9976,-0.1066,-0.437,-0.871,3.561,-5.285,-1.873
1772932313181.5757,-0.1073,-0.4371,-0.8702,3.15,-5.652,-1.811
1772932313181.5757,-0.1083,-0.4362,-0.869,3.019,-5.679,-1.873
1772932313181.5757,-0.1074,-0.4372,-0.8659,2.914,-5.906,-2.074
1772932313181.5757,-0.1064,-0.4418,-0.8655,2.441,-5.968,-1.89
1772932313196.6187,-0.1039,-0.4412,-0.8651,2.678,-5.749,-1.837
1772932313196.6187,-0.1042,-0.4466,-0.8656,2.853,-5.521,-1.934
1772932313196.6187,-0.103,-0.4467,-0.8654,2.914,-5.46,-1.724
1772932313196.6187,-0.1013,-0.4443,-0.8673,3.203,-5.311,-1.558
1772932313196.6187,-0.1035,-0.4423,-0.8703,3.281,-5.128,-1.811
1772932313211.9077,-0.1044,-0.4443,-0.8692,3.01,-5.329,-1.593
1772932313211.9077,-0.1023,-0.4445,-0.8674,2.914,-5.075,-1.794
1772932313211.9077,-0.0994,-0.4426,-0.869,3.237,-4.996,-1.54
1772932313227.0361,-0.0983,-0.4462,-0.8719,3.316,-4.812,-1.715
1772932313227.0361,-0.0964,-0.4476,-0.8698,3.369,-4.611,-1.829
1772932313227.0361,-0.0945,-0.4481,-0.8707,3.413,-4.874,-1.671
1772932313227.0361,-0.095,-0.4444,-0.8729,3.036,-4.673,-1.365
1772932313243.593,-0.0933,-0.4453,-0.8747,2.861,-4.567,-1.374
1772932313243.593,-0.0961,-0.4441,-0.8739,2.774,-4.69,-1.216
1772932313243.593,-0.0997,-0.4399,-0.8776,2.922,-4.646,-1.269
1772932313243.593,-0.101,-0.4396,-0.8758,2.861,-4.76,-1.435
1772932313259.6938,-0.104,-0.4366,-0.8734,2.817,-4.961,-1.566
1772932313259.6938,-0.1048,-0.4369,-0.8761,2.791,-5.268,-1.951
1772932313259.6938,-0.1023,-0.4374,-0.8734,2.896,-5.285,-2.362
1772932313259.6938,-0.1016,-0.439,-0.8728,2.406,-5.058,-2.266
1772932313275.7915,-0.104,-0.4421,-0.873,2.485,-5.171,-2.538
1772932313275.7915,-0.1053,-0.4435,-0.8735,2.459,-5.311,-2.196
1772932313275.7915,-0.1052,-0.4416,-0.8716,2.109,-5.434,-1.986
1772932313275.7915,-0.1088,-0.4417,-0.8747,2.188,-5.329,-1.864
1772932313275.7915,-0.1118,-0.447,-0.8728,2.188,-5.661,-1.654
1772932313291.336,-0.1117,-0.4452,-0.8743,1.969,-5.407,-1.47
1772932313291.336,-0.1107,-0.4453,-0.8682,1.864,-5.749,-1.452
1772932313291.336,-0.1125,-0.447,-0.8716,2.074,-5.53,-1.794
1772932313291.336,-0.1118,-0.4464,-0.8699,2.074,-5.469,-1.514
1772932313306.9492,-0.113,-0.4473,-0.8698,1.768,-5.32,-1.488
1772932313306.9492,-0.1138,-0.4418,-0.8703,1.785,-5.504,-0.998
1772932313306.9492,-0.113,-0.443,-0.8714,2.179,-5.495,-0.884
1772932313322.987,-0.1116,-0.4446,-0.8683,2.118,-5.442,-0.403
1772932313322.987,-0.1096,-0.4408,-0.8706,2.214,-5.46,-0.551
1772932313322.987,-0.1114,-0.4389,-0.8672,1.995,-5.128,-0.446
1772932313322.987,-0.1113,-0.4408,-0.8694,1.942,-5.425,-0.787
1772932313339.054,-0.1124,-0.4388,-0.8679,1.811,-5.521,-1.032
1772932313339.054,-0.1114,-0.4394,-0.8697,1.811,-5.609,-1.032
1772932313339.054,-0.1155,-0.4218,-0.8655,1.715,-5.591,-0.752
1772932313339.054,-0.1135,-0.4338,-0.8689,2.021,-5.81,-0.805
1772932313354.6294,-0.1117,-0.4354,-0.8693,1.558,-5.582,-0.542
1772932313354.6294,-0.113,-0.4326,-0.8689,1.54,-5.582,-0.674
1772932313354.6294,-0.1104,-0.4318,-0.8679,1.663,-5.679,-0.892
1772932313354.6294,-0.1133,-0.4311,-0.8702,1.96,-5.74,-1.155
1772932313354.6294,-0.1114,-0.433,-0.869,2.03,-5.924,-0.971
1772932313370.7168,-0.11,-0.437,-0.8666,2.17,-5.819,-1.076
1772932313370.7168,-0.1138,-0.4388,-0.8696,2.126,-5.758,-1.085
1772932313370.7168,-0.1144,-0.4388,-0.8664,2.039,-5.617,-0.849
1772932313370.7168,-0.1171,-0.4381,-0.8727,2.205,-5.504,-0.569
1772932313385.9067,-0.1155,-0.4396,-0.8716,2.179,-5.731,-0.481
1772932313385.9067,-0.116,-0.4528,-0.8717,2.013,-6.055,-0.718
1772932313385.9067,-0.116,-0.4376,-0.8667,2.03,-6.072,-0.534
1772932313385.9067,-0.1127,-0.436,-0.8696,2.502,-6.081,-0.665
1772932313401.6177,-0.1128,-0.4341,-0.8715,2.266,-5.871,-0.647
1772932313401.6177,-0.1135,-0.4338,-0.8687,2.328,-5.924,-1.444
1772932313401.6177,-0.1124,-0.4344,-0.8706,2.144,-6.107,-1.383
1772932313401.6177,-0.1131,-0.4361,-0.8692,2.214,-5.915,-1.479
1772932313416.9595,-0.1133,-0.439,-0.8685,2.284,-5.994,-1.479
1772932313416.9595,-0.1126,-0.438,-0.8719,2.249,-6.011,-1.776
1772932313416.9595,-0.1137,-0.4375,-0.8729,2.17,-5.819,-1.916
1772932313432.5686,-0.115,-0.4416,-0.8748,1.942,-5.976,-1.942
1772932313432.5686,-0.1179,-0.4401,-0.8709,1.969,-5.871,-2.152
1772932313432.5686,-0.1154,-0.442,-0.8739,1.89,-6.099,-2.371
1772932313432.5686,-0.1161,-0.4405,-0.8703,1.689,-5.985,-2.223
1772932313447.7153,-0.1175,-0.4371,-0.8736,1.488,-5.985,-2.188
1772932313447.7153,-0.1171,-0.4393,-0.8712,1.566,-6.037,-1.794
1772932313447.7153,-0.1158,-0.4416,-0.8714,1.584,-6.143,-2.056
1772932313447.7153,-0.1176,-0.4386,-0.873,1.627,-6.072,-1.969
1772932313447.7153,-0.1154,-0.4372,-0.873,1.732,-6.353,-1.715
1772932313462.8813,-0.1138,-0.438,-0.8705,1.61,-6.3,-1.916
1772932313462.8813,-0.113,-0.4405,-0.8702,1.759,-6.064,-1.907
1772932313462.8813,-0.1068,-0.4404,-0.8692,1.802,-5.906,-1.934
1772932313462.8813,-0.11,-0.4416,-0.8713,1.566,-5.723,-1.837
1772932313478.9163,-0.1099,-0.4386,-0.871,1.549,-5.81,-1.549
1772932313478.9163,-0.1088,-0.4419,-0.8728,1.549,-6.414,-1.724
1772932313478.9163,-0.1074,-0.4433,-0.8689,1.706,-6.414,-1.514
1772932313494.5696,-0.108,-0.4432,-0.8691,1.855,-6.23,-1.601
1772932313494.5696,-0.1108,-0.4392,-0.8718,1.899,-6.239,-1.242
1772932313494.5696,-0.1125,-0.436,-0.8733,1.986,-6.16,-1.47
1772932313494.5696,-0.1154,-0.4319,-0.8696,1.89,-6.23,-1.19
1772932313510.6316,-0.1163,-0.4325,-0.8707,1.864,-6.475,-1.549
1772932313510.6316,-0.1161,-0.4309,-0.8691,1.663,-6.265,-1.426
1772932313510.6316,-0.116,-0.433,-0.8712,1.531,-6.633,-1.68
1772932313510.6316,-0.117,-0.4326,-0.8694,1.636,-6.457,-1.531
1772932313525.6753,-0.1135,-0.4327,-0.8724,1.724,-6.825,-1.724
1772932313525.6753,-0.1138,-0.4347,-0.8692,1.47,-6.816,-1.907
1772932313525.6753,-0.1121,-0.4358,-0.8694,1.435,-6.878,-1.978
1772932313525.6753,-0.1127,-0.438,-0.8692,1.496,-6.851,-1.549
1772932313525.6753,-0.1122,-0.4419,-0.8685,1.321,-6.431,-1.549
1772932313541.2053,-0.1124,-0.4422,-0.8717,1.444,-6.668,-1.461
1772932313541.2053,-0.113,-0.4404,-0.8704,1.339,-6.694,-1.488
1772932313541.2053,-0.1136,-0.4409,-0.8727,1.391,-6.501,-1.627
1772932313541.2053,-0.1134,-0.4401,-0.8725,1.575,-6.755,-1.768
1772932313556.746,-0.1102,-0.44,-0.8725,1.452,-6.781,-1.514
1772932313556.746,-0.1098,-0.4382,-0.8701,1.663,-6.554,-1.916
1772932313556.746,-0.1104,-0.4382,-0.8699,1.645,-6.492,-1.934
1772932313571.7717,-0.111,-0.4366,-0.8705,1.645,-6.344,-1.89
1772932313571.7717,-0.1111,-0.4362,-0.8708,1.829,-6.492,-1.724
1772932313571.7717,-0.1116,-0.4363,-0.8705,1.654,-6.431,-1.855
1772932313571.7717,-0.1144,-0.4393,-0.8689,1.794,-6.213,-1.645
1772932313586.8188,-0.1118,-0.4368,-0.8668,1.435,-5.635,-1.461
1772932313586.8188,-0.1154,-0.4343,-0.8703,1.54,-5.906,-1.295
1772932313586.8188,-0.1147,-0.4346,-0.8699,1.732,-5.862,-1.26
1772932313586.8188,-0.1167,-0.4317,-0.8723,1.776,-5.827,-1.146
1772932313603.3682,-0.116,-0.4322,-0.8754,1.951,-5.924,-1.4
1772932313603.3682,-0.1093,-0.4332,-0.8707,1.995,-6.361,-1.208
1772932313603.3682,-0.1108,-0.4311,-0.8713,1.925,-6.388,-1.286
1772932313603.3682,-0.1065,-0.4316,-0.8714,2.091,-6.265,-1.339
1772932313603.3682,-0.105,-0.4347,-0.8695,2.109,-6.195,-1.689
1772932313619.025,-0.1079,-0.4377,-0.8717,1.986,-6.239,-1.575
1772932313619.025,-0.108,-0.4421,-0.8713,2.179,-6.256,-1.663
1772932313619.025,-0.1053,-0.4418,-0.8728,1.978,-6.169,-1.383
1772932313619.025,-0.1044,-0.4466,-0.8748,1.636,-5.793,-1.461
1772932313634.4812,-0.1019,-0.4454,-0.8738,1.496,-5.897,-1.26
1772932313634.4812,-0.1017,-0.4431,-0.8718,1.242,-6.116,-1.059
1772932313634.4812,-0.1011,-0.4413,-0.8701,0.989,-6.046,-1.208
1772932313649.5532,-0.102,-0.4408,-0.8707,0.963,-6.02,-1.015
1772932313649.5532,-0.0989,-0.4389,-0.8723,1.085,-5.67,-0.91
1772932313649.5532,-0.1006,-0.4372,-0.8712,0.98,-5.88,-0.691
1772932313649.5532,-0.1033,-0.4351,-0.8736,0.919,-5.836,-0.665
1772932313665.0645,-0.0994,-0.4322,-0.873,0.77,-5.897,-0.814
1772932313665.0645,-0.0992,-0.4293,-0.8744,0.7,-5.985,-0.831
1772932313665.0645,-0.1032,-0.4307,-0.876,0.464,-6.003,-1.111
1772932313665.0645,-0.1049,-0.4291,-0.8768,0.621,-5.88,-1.242
1772932313680.3716,-0.1082,-0.4299,-0.8811,0.49,-5.897,-1.12
1772932313680.3716,-0.1094,-0.4318,-0.8796,0.595,-6.055,-1.566
1772932313680.3716,-0.1143,-0.4353,-0.8786,0.56,-6.134,-1.514
1772932313680.3716,-0.1127,-0.4335,-0.876,0.525,-5.714,-1.426
1772932313695.8162,-0.1168,-0.4369,-0.8766,0.656,-6.16,-1.601
1772932313695.8162,-0.118,-0.4341,-0.8767,0.56,-6.099,-1.374
1772932313695.8162,-0.1182,-0.4337,-0.8775,0.297,-6.361,-1.321
1772932313710.9497,-0.1135,-0.4305,-0.8771,0.297,-6.186,-1.4
1772932313710.9497,-0.1155,-0.4325,-0.873,0.149,-6.449,-1.461
1772932313710.9497,-0.1182,-0.4336,-0.8723,0.21,-6.51,-1.006
1772932313710.9497,-0.1204,-0.4333,-0.87,0.271,-6.046,-0.823
1772932313710.9497,-0.1207,-0.435,-0.8697,0.376,-6.055,-0.674
1772932313726.6504,-0.1208,-0.4365,-0.8693,0.525,-6.081,-0.429
1772932313726.6504,-0.1186,-0.435,-0.8689,0.56,-6.064,-0.228
1772932313726.6504,-0.1185,-0.4312,-0.8682,0.464,-6.317,-0.061
1772932313726.6504,-0.1195,-0.4257,-0.8674,0.595,-6.589,-0.315
1772932313742.2493,-0.1168,-0.4255,-0.87,0.787,-6.851,-0.306
1772932313742.2493,-0.1118,-0.4244,-0.8678,0.831,-6.282,-0.455
1772932313742.2493,-0.1125,-0.4271,-0.8691,0.884,-6.282,-0.726
1772932313742.2493,-0.111,-0.4244,-0.8666,1.129,-6.055,-0.744
1772932313757.8147,-0.1146,-0.4244,-0.8659,1.129,-6.23,-0.875
1772932313757.8147,-0.1149,-0.4263,-0.8652,1.103,-6.388,-1.05
1772932313757.8147,-0.1143,-0.4246,-0.8682,1.067,-6.239,-1.155
1772932313757.8147,-0.1169,-0.4262,-0.869,1.164,-6.545,-0.971
1772932313773.4004,-0.1161,-0.4249,-0.8677,1.208,-6.466,-1.347
1772932313773.4004,-0.1123,-0.4214,-0.8723,1.409,-6.414,-1.339
1772932313773.4004,-0.1137,-0.4229,-0.8704,1.488,-6.143,-1.417
1772932313788.9421,-0.1196,-0.4225,-0.8719,1.829,-6.44,-1.514
1772932313788.9421,-0.1154,-0.4241,-0.8756,2.047,-6.589,-1.33
1772932313788.9421,-0.1195,-0.4276,-0.8791,2.31,-6.457,-1.505
1772932313788.9421,-0.1196,-0.4275,-0.876,2.214,-6.825,-1.593
1772932313804.5989,-0.1193,-0.428,-0.8782,1.995,-6.554,-1.531
1772932313804.5989,-0.1204,-0.4302,-0.88,2.065,-6.633,-1.61
1772932313804.5989,-0.1205,-0.4321,-0.878,2.118,-6.878,-1.347
1772932313804.5989,-0.1201,-0.4312,-0.879,1.837,-7.166,-1.295
1772932313804.5989,-0.1205,-0.4305,-0.8781,1.645,-7.009,-1.61
1772932313820.6272,-0.119,-0.4299,-0.8766,1.645,-7.009,-1.593
1772932313820.6272,-0.1204,-0.4338,-0.8758,1.663,-7.306,-1.619
1772932313820.6272,-0.1193,-0.4314,-0.8747,1.759,-7.385,-1.768
1772932313820.6272,-0.1192,-0.4311,-0.8751,1.741,-6.878,-1.627
1772932313835.9436,-0.1218,-0.4318,-0.8766,1.759,-6.878,-1.26
1772932313835.9436,-0.1234,-0.435,-0.8757,1.846,-6.834,-1.4
1772932313835.9436,-0.1232,-0.4358,-0.8739,1.75,-6.659,-1.671
1772932313835.9436,-0.1232,-0.4342,-0.8758,1.794,-6.449,-1.636
1772932313851.51,-0.1232,-0.4342,-0.8773,1.846,-6.694,-1.846
1772932313851.51,-0.125,-0.4376,-0.8766,1.365,-6.501,-1.593
1772932313851.51,-0.1247,-0.4378,-0.8739,1.286,-6.554,-1.347
1772932313866.955,-0.1221,-0.4384,-0.8733,1.006,-6.886,-1.347
1772932313866.955,-0.1208,-0.4446,-0.8697,0.193,-7.236,-1.514
1772932313866.955,-0.119,-0.4496,-0.8674,-0.429,-7.122,-1.339
1772932313866.955,-0.1195,-0.4456,-0.8644,-1.129,-7.35,-1.391
1772932313882.5596,-0.1235,-0.4391,-0.8646,-1.225,-7.586,-1.785
1772932313882.5596,-0.1283,-0.4367,-0.8594,-0.823,-8.207,-2.109
1772932313882.5596,-0.1266,-0.4318,-0.8588,-0.394,-8.068,-1.724
1772932313882.5596,-0.1233,-0.4269,-0.8634,0.84,-7.779,-1.444
1772932313882.5596,-0.1217,-0.42,-0.8658,1.768,-7.184,-1.059
1772932313898.6763,-0.1217,-0.4174,-0.8718,2.905,-6.335,-0.56
1772932313898.6763,-0.1186,-0.4207,-0.8766,2.966,-5.67,-0.315
1772932313898.6763,-0.1126,-0.4252,-0.8752,2.826,-5.049,-0.149
1772932313898.6763,-0.1114,-0.4239,-0.8806,1.942,-5.197,-0.306
1772932313914.7744,-0.1075,-0.4216,-0.8838,0.823,-5.11,-0.35
1772932313914.7744,-0.106,-0.421,-0.8821,0.149,-5.416,-0.534
1772932313914.7744,-0.1106,-0.415,-0.8773,0.341,-5.793,-1.356
1772932313914.7744,-0.116,-0.4216,-0.8744,0.394,-6.099,-1.68
1772932313930.3909,-0.1179,-0.4316,-0.8684,0.149,-5.976,-1.645
1772932313930.3909,-0.1148,-0.4366,-0.8647,-0.49,-5.731,-1.505
1772932313930.3909,-0.1122,-0.436,-0.8649,-0.963,-5.714,-1.006
1772932313930.3909,-0.1147,-0.4337,-0.8652,-1.242,-5.749,-1.085
1772932313945.5479,-0.1208,-0.4309,-0.8646,-1.242,-6.011,-0.901
1772932313945.5479,-0.1261,-0.4285,-0.8649,-1.199,-6.116,-1.111
1772932313945.5479,-0.1292,-0.4279,-0.8644,-0.98,-6.326,-1.321
1772932313961.6316,-0.133,-0.4203,-0.8667,2.135,-6.606,-1.811
1772932313961.6316,-0.1339,-0.4149,-0.8686,1.032,-6.676,-2.354
1772932313961.6316,-0.1329,-0.4149,-0.8744,1.759,-7.044,-2.529
1772932313961.6316,-0.1339,-0.4111,-0.8777,2.266,-6.895,-2.748
1772932313976.7341,-0.1332,-0.4139,-0.8811,2.476,-6.86,-2.651
1772932313976.7341,-0.1323,-0.4147,-0.8863,2.371,-6.991,-2.8
1772932313976.7341,-0.1307,-0.4155,-0.8899,2.109,-6.685,-2.24
1772932313976.7341,-0.1303,-0.4185,-0.8901,1.873,-7.306,-2.336
1772932313976.7341,-0.1273,-0.4251,-0.8893,1.199,-7.184,-2.013
1772932313992.2988,-0.1246,-0.4285,-0.8872,0.963,-7.009,-1.724
1772932313992.2988,-0.1203,-0.4304,-0.8807,0.665,-7.263,-1.627
1772932313992.2988,-0.1174,-0.4344,-0.876,0.394,-7.035,-1.321
1772932313992.2988,-0.1143,-0.4338,-0.8761,0.84,-6.72,-1.032
1772932314007.8416,-0.1117,-0.4321,-0.8796,1.452,-6.886,-0.858
1772932314007.8416,-0.1099,-0.4304,-0.882,2.083,-6.615,-0.919
1772932314007.8416,-0.1105,-0.4266,-0.8804,2.03,-6.51,-1.094
1772932314007.8416,-0.1119,-0.4265,-0.8786,2.651,-6.676,-1.032
1772932314023.4253,-0.1141,-0.4218,-0.8817,2.8,-6.633,-1.164
1772932314023.4253,-0.1155,-0.4194,-0.8806,2.853,-5.906,-1.181
1772932314023.4253,-0.1145,-0.4186,-0.8829,3.071,-5.854,-1.496
1772932314039.0383,-0.1132,-0.4177,-0.8804,3.474,-5.801,-1.829
1772932314039.0383,-0.1113,-0.4186,-0.8795,3.43,-5.714,-2.1
1772932314039.0383,-0.1108,-0.4204,-0.8794,3.22,-5.854,-2.38
1772932314039.0383,-0.1121,-0.4218,-0.8786,2.993,-5.775,-2.362
1772932314054.6313,-0.1169,-0.4236,-0.8777,2.529,-5.652,-2.249
1772932314054.6313,-0.1194,-0.4201,-0.8766,1.899,-5.6,-2.362
1772932314054.6313,-0.1268,-0.4213,-0.8807,1.619,-5.679,-2.223
1772932314054.6313,-0.1301,-0.4204,-0.8788,1.75,-6.055,-2.179
1772932314054.6313,-0.1288,-0.4218,-0.8801,1.96,-6.317,-1.776
1772932314069.708,-0.1272,-0.4205,-0.8773,1.794,-6.58,-1.942
1772932314069.708,-0.1307,-0.4207,-0.8764,1.575,-6.886,-1.829
1772932314069.708,-0.1287,-0.4194,-0.875,1.488,-6.65,-1.531
1772932314069.708,-0.1271,-0.4227,-0.8744,1.242,-7.018,-1.689
1772932314084.8264,-0.1227,-0.4243,-0.8755,1.216,-6.947,-1.715
1772932314084.8264,-0.1253,-0.4234,-0.8705,1.47,-7.315,-1.278
1772932314084.8264,-0.1208,-0.4253,-0.8731,1.452,-7.228,-1.663
1772932314100.3838,-0.1177,-0.4277,-0.8725,1.435,-7.324,-1.225
1772932314100.3838,-0.1162,-0.4267,-0.8719,1.593,-7.157,-1.444
1772932314100.3838,-0.1145,-0.4263,-0.8714,1.645,-7.577,-1.461
1772932314100.3838,-0.1147,-0.4232,-0.8705,1.627,-7.402,-1.312
1772932314116.0212,-0.114,-0.4214,-0.8698,1.732,-7.508,-1.47
1772932314116.0212,-0.1175,-0.4205,-0.8694,1.724,-7.009,-1.732
1772932314116.0212,-0.1182,-0.4171,-0.8694,1.89,-6.965,-1.619
1772932314116.0212,-0.1207,-0.418,-0.8744,2.065,-6.825,-1.899
1772932314131.3628,-0.1182,-0.418,-0.8755,1.916,-6.659,-1.934
1772932314131.3628,-0.1229,-0.4152,-0.876,1.759,-7.018,-1.75
1772932314131.3628,-0.1237,-0.4181,-0.8754,1.89,-6.912,-1.558
1772932314131.3628,-0.124,-0.4184,-0.878,1.785,-7.079,-1.768
1772932314146.736,-0.1243,-0.4196,-0.8779,1.636,-6.939,-1.689
1772932314146.736,-0.1237,-0.422,-0.8776,1.698,-7.079,-1.627
1772932314146.736,-0.1254,-0.4205,-0.8761,1.654,-6.904,-1.488
1772932314146.736,-0.1261,-0.422,-0.8807,1.732,-6.965,-1.566
1772932314146.736,-0.1262,-0.4236,-0.8777,1.715,-7.018,-1.426
1772932314162.8364,-0.1285,-0.4274,-0.8793,2.083,-7.429,-1.916
1772932314162.8364,-0.1309,-0.4293,-0.8773,2.45,-7.499,-1.96
1772932314162.8364,-0.1294,-0.428,-0.8794,2.888,-7.263,-1.846
1772932314162.8364,-0.1341,-0.428,-0.8847,3.124,-7.088,-1.794
1772932314179.2341,-0.1317,-0.4315,-0.8843,3.211,-7.026,-1.785
1772932314179.2341,-0.1296,-0.432,-0.8838,3.342,-7.026,-1.899
1772932314179.2341,-0.1328,-0.428,-0.8864,3.447,-7.411,-1.724
1772932314179.2341,-0.1308,-0.4304,-0.8841,3.369,-7.394,-1.575
1772932314194.504,-0.1322,-0.4318,-0.8849,3.509,-7.543,-1.531
1772932314194.504,-0.1283,-0.4315,-0.8813,3.211,-7.586,-1.558
1772932314194.504,-0.1257,-0.4302,-0.8769,3.08,-7.508,-1.242
1772932314210.133,-0.123,-0.4318,-0.8739,2.441,-7.429,-1.164
1772932314210.133,-0.1199,-0.4275,-0.8662,2.284,-7.805,-1.208
1772932314210.133,-0.1191,-0.4255,-0.8634,1.942,-7.604,-1.295
1772932314210.133,-0.1196,-0.4229,-0.8657,2.091,-7.718,-1.242
1772932314225.736,-0.122,-0.4193,-0.8603,2.266,-7.315,-1.54
1772932314225.736,-0.1252,-0.4149,-0.8581,2.739,-6.982,-1.181
1772932314225.736,-0.1229,-0.4141,-0.8607,2.817,-7.114,-1.059
1772932314225.736,-0.124,-0.411,-0.8631,3.194,-6.781,-0.805
1772932314225.736,-0.1254,-0.4114,-0.8634,3.29,-6.685,-0.91
1772932314241.324,-0.1246,-0.412,-0.8653,3.237,-6.527,-0.998
1772932314241.324,-0.1258,-0.4168,-0.869,3.229,-6.851,-1.137
1772932314241.324,-0.1238,-0.4186,-0.8699,3.141,-6.309,-1.216
1772932314241.324,-0.1214,-0.4199,-0.8703,2.73,-6.475,-1.181
1772932314256.909,-0.1211,-0.4178,-0.8688,2.24,-6.247,-1.374
1772932314256.909,-0.1215,-0.4197,-0.8681,2.118,-6.414,-1.741
1772932314256.909,-0.1208,-0.4232,-0.8688,2.1,-6.361,-1.785
1772932314273.0356,-0.1229,-0.4236,-0.8667,2.021,-6.501,-2.188
1772932314273.0356,-0.1244,-0.4235,-0.8681,2.397,-6.186,-1.785
1772932314273.0356,-0.1199,-0.4248,-0.8712,2.38,-6.247,-2.152
1772932314273.0356,-0.1229,-0.426,-0.8722,2.371,-6.317,-2.319
1772932314288.6624,-0.1263,-0.4265,-0.8731,2.66,-6.169,-2.17
1772932314288.6624,-0.1244,-0.4255,-0.8814,2.59,-6.335,-2.441
1772932314288.6624,-0.1273,-0.4277,-0.8784,2.091,-6.116,-2.572
1772932314288.6624,-0.13,-0.4286,-0.879,2.214,-5.915,-2.459
1772932314304.753,-0.1284,-0.4267,-0.8796,2.03,-6.317,-2.24
1772932314304.753,-0.1296,-0.4263,-0.8803,1.706,-6.134,-2.091
1772932314304.753,-0.1294,-0.4268,-0.8798,1.566,-6.003,-1.802
1772932314304.753,-0.1324,-0.4257,-0.882,1.444,-6.099,-1.575
1772932314304.753,-0.1344,-0.4214,-0.8836,1.417,-5.889,-1.444
1772932314321.2886,-0.1345,-0.4217,-0.886,1.094,-5.679,-1.706
1772932314321.2886,-0.1347,-0.4184,-0.8874,1.208,-6.256,-1.706
1772932314321.2886,-0.1322,-0.4177,-0.8871,1.024,-5.985,-1.881
1772932314321.2886,-0.1315,-0.4187,-0.8901,0.805,-6.125,-1.811
1772932314336.8892,-0.1333,-0.4197,-0.8892,0.578,-6.326,-1.811
1772932314336.8892,-0.1322,-0.4203,-0.8883,0.385,-6.816,-2.03
1772932314336.8892,-0.1292,-0.4233,-0.8887,0.14,-6.746,-1.907
1772932314336.8892,-0.1298,-0.4202,-0.8886,-0.254,-7.114,-2.004
1772932314352.4465,-0.1291,-0.4244,-0.8888,-0.236,-7.306,-1.732
1772932314352.4465,-0.1286,-0.4222,-0.886,-0.306,-7.595,-1.68
1772932314352.4465,-0.1271,-0.422,-0.8866,-0.525,-7.674,-1.663
1772932314352.4465,-0.1272,-0.4183,-0.8846,-0.315,-7.989,-1.881
1772932314368.0198,-0.1249,-0.4174,-0.8833,-0.621,-7.893,-2.091
1772932314368.0198,-0.1224,-0.4216,-0.8785,-0.49,-8.286,-2.24
1772932314368.0198,-0.1175,-0.4211,-0.8756,-0.403,-7.91,-1.986
1772932314383.5916,-0.1144,-0.4229,-0.8771,-0.184,-8.199,-1.75
1772932314383.5916,-0.1161,-0.421,-0.8736,-0.42,-8.61,-1.68
1772932314383.5916,-0.1104,-0.415,-0.872,-0.394,-8.557,-1.19
1772932314383.5916,-0.1089,-0.4167,-0.8678,-0.586,-8.671,-0.998
1772932314399.6724,-0.1044,-0.4104,-0.8682,-0.455,-8.4,-0.954
1772932314399.6724,-0.1026,-0.4106,-0.8661,-0.56,-8.006,-0.551
1772932314399.6724,-0.1035,-0.4089,-0.8673,-0.175,-7.936,-0.639
1772932314399.6724,-0.1016,-0.4068,-0.8678,0.245,-7.674,-0.682
1772932314414.807,-0.1055,-0.4056,-0.873,0.324,-7.166,-0.516
1772932314414.807,-0.106,-0.4049,-0.8757,0.831,-6.947,-0.761
1772932314414.807,-0.1068,-0.4013,-0.8767,0.709,-6.475,-0.665
1772932314414.807,-0.1053,-0.4014,-0.8812,1.181,-6.755,-1.417
1772932314414.807,-0.1088,-0.4012,-0.8846,1.619,-6.72,-2.065
1772932314430.3613,-0.1109,-0.4053,-0.888,1.855,-6.484,-2.205
1772932314430.3613,-0.1147,-0.4071,-0.8868,2.021,-6.633,-2.38
1772932314430.3613,-0.1181,-0.407,-0.8905,2.056,-6.659,-2.38
1772932314430.3613,-0.1181,-0.4103,-0.8889,2.152,-6.729,-2.144
1772932314445.9316,-0.1269,-0.4114,-0.8883,1.802,-6.755,-1.934
1772932314445.9316,-0.1283,-0.4116,-0.886,1.855,-6.414,-1.881
1772932314445.9316,-0.1335,-0.4122,-0.8881,1.925,-6.527,-1.698
1772932314462.0002,-0.134,-0.4139,-0.8847,2.17,-6.379,-1.768
1772932314462.0002,-0.1385,-0.4175,-0.8861,2.17,-6.764,-1.654
1772932314462.0002,-0.1396,-0.4182,-0.884,2.056,-7.105,-1.837
1772932314462.0002,-0.1413,-0.42,-0.8819,2.433,-6.843,-1.741
1772932314477.6594,-0.1418,-0.4224,-0.8766,2.52,-4.918,-1.593
1772932314477.6594,-0.1434,-0.4238,-0.8734,2.669,-6.694,-1.339
1772932314477.6594,-0.1413,-0.4229,-0.8697,2.748,-6.694,-1.094
1772932314477.6594,-0.142,-0.423,-0.8677,2.896,-6.466,-0.875
1772932314493.9045,-0.1435,-0.4227,-0.8669,3.001,-6.213,-0.761
1772932314493.9045,-0.1443,-0.4191,-0.87,3.036,-6.09,-0.7
1772932314493.9045,-0.146,-0.4159,-0.8665,3.456,-6.16,-0.971
1772932314493.9045,-0.1461,-0.4153,-0.8659,3.675,-6.256,-1.12
1772932314493.9045,-0.1466,-0.4135,-0.8664,3.876,-6.072,-1.015
1772932314509.5747,-0.1456,-0.4114,-0.8655,4.034,-6.003,-1.059
1772932314509.5747,-0.1451,-0.4132,-0.8639,4.077,-6.09,-1.006
1772932314509.5747,-0.1452,-0.4116,-0.8652,4.253,-5.889,-0.927
1772932314509.5747,-0.1412,-0.4128,-0.8646,4.48,-5.6,-1.295
1772932314524.7097,-0.1373,-0.4104,-0.8702,4.629,-5.591,-1.558
1772932314524.7097,-0.1353,-0.412,-0.8711,4.681,-5.268,-1.505
1772932314524.7097,-0.1376,-0.415,-0.8683,4.804,-5.521,-1.61
1772932314524.7097,-0.138,-0.4146,-0.8728,4.445,-5.399,-1.846
1772932314541.3262,-0.138,-0.4179,-0.8739,4.559,-5.626,-1.75
1772932314541.3262,-0.1354,-0.4205,-0.8747,4.322,-5.801,-1.881
1772932314541.3262,-0.1347,-0.4225,-0.8755,4.48,-5.749,-1.846
1772932314541.3262,-0.1357,-0.4282,-0.8768,4.322,-5.81,-1.776
1772932314557.0413,-0.1353,-0.4293,-0.8774,3.99,-5.784,-1.654
1772932314557.0413,-0.1332,-0.431,-0.8773,3.885,-6.169,-1.934
1772932314557.0413,-0.1338,-0.4329,-0.874,3.955,-6.423,-2.144
1772932314557.0413,-0.1333,-0.4333,-0.8757,3.806,-6.3,-2.126
1772932314557.0413,-0.1337,-0.436,-0.873,3.719,-6.265,-2.179
1772932314572.1753,-0.1355,-0.4399,-0.8729,3.482,-6.099,-1.995
1772932314572.1753,-0.1343,-0.4404,-0.874,3.43,-6.169,-1.907
1772932314587.9011,-0.1322,-0.4401,-0.8725,3.325,-6.099,-2.118
1772932314587.9011,-0.1329,-0.4406,-0.8725,2.853,-6.099,-1.873
1772932314587.9011,-0.1324,-0.4384,-0.8779,3.395,-6.125,-1.89
1772932314587.9011,-0.1283,-0.438,-0.878,3.036,-6.58,-1.619
1772932314587.9011,-0.1237,-0.4355,-0.8772,3.089,-6.702,-1.925
1772932314603.6292,-0.1181,-0.4354,-0.88,2.975,-6.974,-1.873
1772932314603.6292,-0.1139,-0.431,-0.8754,2.581,-7.481,-1.89
1772932314603.6292,-0.1125,-0.4313,-0.8738,2.52,-7.481,-1.671
1772932314603.6292,-0.1074,-0.4276,-0.8704,2.126,-7.044,-1.715
1772932314619.7249,-0.1038,-0.4268,-0.8732,1.4,-6.904,-1.488
1772932314619.7249,-0.1057,-0.4182,-0.8721,1.041,-6.878,-1.339
1772932314619.7249,-0.1049,-0.4175,-0.8755,0.752,-6.676,-1.111
1772932314619.7249,-0.1047,-0.4139,-0.8777,0.595,-6.606,-1.269
1772932314635.3213,-0.1066,-0.4147,-0.8786,0.542,-6.414,-1.216
1772932314635.3213,-0.1095,-0.4136,-0.8792,0.551,-6.16,-1.347
1772932314635.3213,-0.109,-0.4147,-0.8817,0.438,-6.414,-1.242
1772932314635.3213,-0.1132,-0.4167,-0.8838,0.28,-6.247,-1.514
1772932314635.3213,-0.1158,-0.4148,-0.8875,0.026,-5.897,-1.225
1772932314651.401,-0.1168,-0.4164,-0.8897,-0.114,-6.046,-1.155
1772932314651.401,-0.12,-0.4139,-0.892,-0.21,-6.037,-1.452
1772932314667.037,-0.1219,-0.4137,-0.8907,0.114,-6.134,-1.374
1772932314667.037,-0.1252,-0.4117,-0.8907,0.149,-6.3,-1.61
1772932314667.037,-0.1271,-0.4132,-0.8891,0.175,-6.116,-1.522
1772932314667.037,-0.1285,-0.415,-0.8919,0.333,-6.16,-1.479
1772932314667.037,-0.1319,-0.4133,-0.888,0.455,-6.055,-1.741
1772932314682.1848,-0.1309,-0.411,-0.8869,0.91,-6.037,-1.811
1772932314682.1848,-0.1382,-0.411,-0.8879,1.094,-6.09,-1.663
1772932314682.1848,-0.14,-0.4093,-0.884,1.024,-6.143,-1.47
1772932314682.1848,-0.1452,-0.4078,-0.8808,1.234,-6.423,-1.356
1772932314697.7678,-0.1449,-0.4075,-0.8801,1.479,-6.335,-1.444
1772932314697.7678,-0.1497,-0.4066,-0.8779,1.907,-6.388,-1.54
1772932314697.7678,-0.147,-0.4064,-0.878,1.942,-6.606,-1.522
1772932314697.7678,-0.1486,-0.4026,-0.8756,2.231,-6.414,-1.531
1772932314713.9172,-0.1522,-0.3981,-0.8751,2.424,-6.186,-1.558
1772932314713.9172,-0.15,-0.3983,-0.874,2.748,-6.221,-1.636
1772932314713.9172,-0.1476,-0.3985,-0.873,2.94,-6.457,-1.636
1772932314713.9172,-0.1473,-0.4003,-0.8734,3.237,-6.466,-1.627
1772932314729.558,-0.1426,-0.4035,-0.8709,3.439,-6.344,-1.566
1772932314729.558,-0.1413,-0.4056,-0.8738,3.413,-6.02,-1.111
1772932314729.558,-0.1395,-0.4055,-0.8721,3.728,-5.959,-1.181
1772932314729.558,-0.1346,-0.4064,-0.8744,3.771,-6.029,-1.251
1772932314729.558,-0.1286,-0.4087,-0.8778,3.85,-5.74,-1.032
1772932314744.696,-0.1265,-0.4086,-0.8758,4.279,-6.134,-0.98
1772932314744.696,-0.1238,-0.4102,-0.8772,4.349,-6.151,-0.866
1772932314760.8142,-0.1219,-0.4126,-0.8764,4.393,-6.213,-0.823
1772932314760.8142,-0.1211,-0.4124,-0.8735,4.515,-6.484,-0.77
1772932314760.8142,-0.1202,-0.4124,-0.8777,4.532,-6.291,-0.796
1772932314760.8142,-0.1204,-0.415,-0.8783,4.576,-6.492,-0.691
1772932314760.8142,-0.123,-0.4135,-0.8771,4.559,-6.527,-0.779
1772932314775.4885,-0.1243,-0.4135,-0.8791,4.76,-6.247,-0.744
1772932314775.4885,-0.123,-0.4173,-0.8786,4.707,-6.781,-0.884
1772932314775.4885,-0.1243,-0.4149,-0.8804,4.699,-6.589,-1.032
1772932314775.4885,-0.1279,-0.413,-0.8834,4.401,-6.895,-1.006
1772932314791.202,-0.1287,-0.415,-0.8869,3.955,-6.886,-1.19
1772932314791.202,-0.1293,-0.4141,-0.8816,3.736,-7.088,-1.461
1772932314791.202,-0.1272,-0.4162,-0.8839,3.465,-6.869,-1.409
1772932314791.202,-0.1318,-0.417,-0.8785,3.5,-7.166,-1.732
1772932314806.032,-0.1306,-0.4206,-0.8851,3.334,-7.07,-2.039
1772932314806.032,-0.1317,-0.4224,-0.8832,3.027,-7.14,-1.776
1772932314806.032,-0.135,-0.423,-0.8827,3.045,-6.886,-2.074
1772932314821.5862,-0.1387,-0.4225,-0.8828,2.643,-6.965,-2.424
1772932314821.5862,-0.14,-0.4219,-0.8798,2.555,-7.21,-2.24
1772932314821.5862,-0.1435,-0.4235,-0.8854,2.31,-6.974,-2.039
1772932314821.5862,-0.1437,-0.4244,-0.8847,1.995,-6.843,-2.328
1772932314836.667,-0.145,-0.4226,-0.8833,2.056,-6.965,-2.056
1772932314836.667,-0.1473,-0.4229,-0.8843,2.179,-6.562,-1.873
1772932314836.667,-0.148,-0.4236,-0.8855,1.864,-7.0,-1.881
1772932314836.667,-0.1485,-0.4219,-0.8838,1.645,-7.053,-1.89
1772932314836.667,-0.1457,-0.4221,-0.8812,1.242,-6.93,-1.881
1772932314851.6104,-0.1437,-0.4233,-0.881,0.849,-6.912,-1.514
1772932314851.6104,-0.1428,-0.4255,-0.8758,0.21,-7.464,-1.566
1772932314851.6104,-0.1448,-0.4312,-0.8715,-0.569,-7.612,-1.558
1772932314851.6104,-0.1442,-0.4286,-0.8671,-1.05,-7.639,-1.181
1772932314867.7031,-0.141,-0.4219,-0.8665,-1.067,-7.849,-1.356
1772932314867.7031,-0.1413,-0.413,-0.8601,-0.578,-7.665,-1.409
1772932314867.7031,-0.1391,-0.4105,-0.8628,0.49,-7.429,-1.374
1772932314883.7593,-0.1372,-0.4074,-0.8666,1.488,-7.394,-1.225
1772932314883.7593,-0.1372,-0.4014,-0.8661,2.896,-6.79,-1.137
1772932314883.7593,-0.1354,-0.3985,-0.8699,3.587,-6.072,-1.137
1772932314883.7593,-0.1296,-0.4067,-0.8716,4.174,-5.355,-0.866
1772932314899.8484,-0.1274,-0.4175,-0.8751,3.351,-5.268,-0.84
1772932314899.8484,-0.122,-0.4194,-0.8757,2.538,-5.075,-0.691
1772932314899.8484,-0.1255,-0.4148,-0.8733,1.522,-5.399,-0.718
1772932314899.8484,-0.1273,-0.4061,-0.8722,1.19,-5.661,-1.251
1772932314915.7495,-0.1329,-0.402,-0.8702,1.698,-5.941,-1.575
1772932314915.7495,-0.1371,-0.4124,-0.8661,2.678,-5.976,-1.663
1772932314915.7495,-0.1358,-0.4204,-0.8572,2.791,-5.407,-1.33
1772932314915.7495,-0.1327,-0.4247,-0.8566,2.564,-5.556,-1.041
1772932314931.4424,-0.1288,-0.4227,-0.8627,2.223,-5.504,-1.024
1772932314931.4424,-0.1297,-0.4182,-0.8644,1.575,-5.425,-1.076
1772932314931.4424,-0.1334,-0.4181,-0.8613,1.304,-5.075,-1.059
1772932314931.4424,-0.139,-0.4163,-0.8603,1.461,-5.652,-1.295
1772932314931.4424,-0.1413,-0.4178,-0.8618,1.96,-5.67,-0.919
1772932314946.6084,-0.1411,-0.4144,-0.8624,2.345,-5.793,-1.181
1772932314946.6084,-0.1423,-0.41,-0.8641,2.888,-5.784,-1.208
1772932314946.6084,-0.1418,-0.408,-0.8708,3.342,-5.609,-1.33
1772932314946.6084,-0.1429,-0.403,-0.8786,4.261,-5.749,-1.741
1772932314963.2021,-0.143,-0.4072,-0.8832,5.11,-5.801,-1.855
1772932314963.2021,-0.1408,-0.4094,-0.8927,5.495,-5.862,-1.829
1772932314963.2021,-0.1388,-0.4087,-0.8979,5.451,-6.029,-2.109
1772932314963.2021,-0.1357,-0.413,-0.9033,5.136,-6.02,-2.231
1772932314979.3062,-0.1344,-0.4196,-0.9001,4.62,-5.88,-2.257
1772932314979.3062,-0.1283,-0.425,-0.8995,4.008,-6.492,-1.864
1772932314979.3062,-0.1285,-0.4288,-0.8977,3.15,-6.344,-1.759
1772932314979.3062,-0.1249,-0.4317,-0.8907,2.275,-6.116,-1.225
1772932314979.3062,-0.1267,-0.4309,-0.8916,2.047,-5.845,-0.98
1772932314994.8794,-0.1257,-0.4286,-0.89,2.004,-5.862,-0.831
1772932314994.8794,-0.1274,-0.4291,-0.8883,2.1,-5.565,-0.726
1772932315010.9004,-0.1272,-0.4277,-0.8886,2.292,-5.897,-0.945
1772932315010.9004,-0.1241,-0.4247,-0.8858,2.354,-5.661,-1.242
1772932315010.9004,-0.1254,-0.4251,-0.8868,2.266,-5.609,-1.129
1772932315010.9004,-0.125,-0.4216,-0.8857,2.161,-5.652,-1.365
1772932315010.9004,-0.1252,-0.4183,-0.8796,2.161,-5.723,-1.61
1772932315026.6328,-0.1274,-0.4191,-0.8794,2.345,-5.644,-1.549
1772932315026.6328,-0.1269,-0.4191,-0.8773,2.52,-5.495,-1.75
1772932315026.6328,-0.1246,-0.4202,-0.8775,2.135,-5.197,-1.741
1772932315026.6328,-0.1232,-0.4185,-0.8744,2.214,-5.171,-1.811
1772932315042.3928,-0.1252,-0.4171,-0.8732,1.829,-5.338,-1.934
1772932315042.3928,-0.1255,-0.4145,-0.8716,1.768,-5.268,-2.091
1772932315042.3928,-0.1267,-0.4127,-0.8708,1.452,-5.303,-2.03
1772932315042.3928,-0.1299,-0.4142,-0.873,1.593,-5.486,-1.698
1772932315057.9812,-0.1315,-0.4092,-0.8723,1.365,-5.442,-1.452
1772932315057.9812,-0.1362,-0.4088,-0.8723,1.339,-5.714,-1.024
1772932315057.9812,-0.1365,-0.407,-0.8739,1.234,-5.696,-1.05
1772932315057.9812,-0.1384,-0.4088,-0.8732,1.417,-5.609,-1.199
1772932315073.5369,-0.1407,-0.4068,-0.8727,1.479,-5.451,-0.945
1772932315073.5369,-0.1408,-0.4069,-0.8724,1.409,-5.504,-1.032
1772932315073.5369,-0.1408,-0.4056,-0.8709,1.391,-5.705,-1.111
1772932315089.5918,-0.1423,-0.4016,-0.8701,1.811,-5.495,-1.269
1772932315089.5918,-0.1398,-0.4034,-0.8708,1.846,-5.539,-1.365
1772932315089.5918,-0.1406,-0.4061,-0.8732,2.056,-5.609,-1.566
1772932315089.5918,-0.1399,-0.4046,-0.873,2.249,-5.784,-1.522
1772932315089.5918,-0.1391,-0.4034,-0.8739,2.502,-6.099,-1.732
1772932315105.1401,-0.139,-0.4041,-0.8715,2.817,-6.02,-1.978
1772932315105.1401,-0.1384,-0.4071,-0.8741,2.905,-5.723,-1.916
1772932315105.1401,-0.1388,-0.4088,-0.8755,3.115,-5.6,-1.671
1772932315105.1401,-0.1407,-0.4082,-0.8787,3.369,-5.626,-1.584
1772932315120.7441,-0.1378,-0.4107,-0.8791,3.369,-5.031,-1.452
1772932315120.7441,-0.1409,-0.4093,-0.8802,3.579,-5.329,-1.251
1772932315120.7441,-0.1419,-0.4094,-0.883,3.342,-5.338,-1.347
1772932315120.7441,-0.1401,-0.4127,-0.8812,3.369,-5.591,-1.312
1772932315136.8276,-0.138,-0.4126,-0.8827,3.334,-5.714,-1.339
1772932315136.8276,-0.1363,-0.4107,-0.8856,3.404,-5.609,-1.208
1772932315136.8276,-0.1364,-0.4159,-0.8904,3.237,-5.661,-1.435
1772932315136.8276,-0.1387,-0.4139,-0.8896,3.098,-5.88,-1.278
1772932315153.3948,-0.1386,-0.4118,-0.8846,3.36,-6.247,-1.601
1772932315153.3948,-0.1391,-0.4125,-0.8886,3.194,-6.3,-1.855
1772932315153.3948,-0.1385,-0.4127,-0.8875,3.439,-6.423,-1.89
1772932315153.3948,-0.1402,-0.4123,-0.8863,3.535,-6.449,-1.837
1772932315153.3948,-0.1371,-0.4178,-0.8871,3.806,-6.213,-1.593
1772932315168.0525,-0.1373,-0.4169,-0.8899,3.526,-5.95,-1.26
1772932315168.0525,-0.134,-0.4144,-0.8897,3.43,-5.941,-1.067
1772932315183.6665,-0.1358,-0.4161,-0.8925,3.36,-5.871,-0.936
1772932315183.6665,-0.1345,-0.4168,-0.8889,3.211,-6.16,-0.945
1772932315183.6665,-0.1333,-0.4202,-0.8893,3.089,-6.151,-0.858
1772932315183.6665,-0.1313,-0.4218,-0.8855,2.669,-6.107,-1.164
1772932315183.6665,-0.1321,-0.4219,-0.8816,2.231,-6.029,-1.006
1772932315199.756,-0.1271,-0.4197,-0.8772,1.575,-6.055,-1.076
1772932315199.756,-0.1305,-0.4168,-0.8776,1.479,-6.457,-1.321
1772932315199.756,-0.1308,-0.4144,-0.8758,1.601,-6.711,-1.715
1772932315199.756,-0.1318,-0.4142,-0.8723,2.17,-6.72,-1.802
1772932315215.863,-0.1327,-0.4105,-0.8713,2.704,-6.606,-1.802
1772932315215.863,-0.1349,-0.4128,-0.8717,2.958,-6.746,-1.776
1772932315215.863,-0.1391,-0.4064,-0.8706,3.281,-6.16,-1.627
1772932315215.863,-0.1426,-0.4013,-0.875,3.229,-6.291,-1.663
1772932315231.7556,-0.1466,-0.4054,-0.8784,3.29,-6.134,-1.732
1772932315231.7556,-0.1453,-0.4053,-0.8764,3.404,-6.335,-1.768
1772932315231.7556,-0.1422,-0.408,-0.8761,2.905,-6.265,-2.091
1772932315231.7556,-0.1414,-0.411,-0.8739,2.756,-6.335,-1.951
1772932315231.7556,-0.1377,-0.4154,-0.8741,2.03,-6.344,-2.013
1772932315247.5916,-0.1343,-0.4156,-0.8706,1.496,-6.291,-1.846
1772932315247.5916,-0.1348,-0.4183,-0.8677,1.689,-6.37,-1.925
1772932315247.5916,-0.1324,-0.4175,-0.8666,1.619,-5.705,-1.391
1772932315247.5916,-0.133,-0.4182,-0.8679,1.864,-6.02,-1.374
1772932315263.1445,-0.1338,-0.4179,-0.8711,2.083,-5.74,-1.689
1772932315263.1445,-0.1351,-0.4199,-0.8708,2.336,-5.644,-1.558
1772932315263.1445,-0.1332,-0.4213,-0.8703,2.66,-5.661,-1.417
1772932315263.1445,-0.1338,-0.4182,-0.8746,2.695,-5.661,-1.566
1772932315279.278,-0.1323,-0.4201,-0.8766,2.888,-5.652,-1.33
1772932315279.278,-0.1332,-0.4205,-0.8804,2.861,-5.609,-1.549
1772932315279.278,-0.1334,-0.4187,-0.8785,2.739,-5.661,-1.251
1772932315279.278,-0.134,-0.4183,-0.8797,2.966,-5.793,-1.365
1772932315294.8438,-0.1361,-0.4155,-0.8804,2.809,-5.285,-1.006
1772932315294.8438,-0.1363,-0.4138,-0.8805,2.826,-5.32,-1.094
1772932315294.8438,-0.1347,-0.4129,-0.883,2.888,-5.451,-1.041
1772932315310.8735,-0.1326,-0.4136,-0.8816,3.062,-5.268,-1.234
1772932315310.8735,-0.1333,-0.4138,-0.8835,3.106,-5.294,-1.391
1772932315310.8735,-0.1317,-0.4158,-0.883,2.826,-5.381,-1.26
1772932315310.8735,-0.1328,-0.4152,-0.8819,2.905,-5.53,-1.549
1772932315326.949,-0.1293,-0.416,-0.8822,2.678,-5.582,-1.278
1772932315326.949,-0.1333,-0.4122,-0.8823,2.538,-5.504,-1.654
1772932315326.949,-0.1335,-0.4149,-0.8794,2.59,-5.836,-1.566
1772932315326.949,-0.1332,-0.4136,-0.8791,2.301,-5.793,-1.654
1772932315326.949,-0.1337,-0.4164,-0.877,2.196,-5.407,-1.776
1772932315343.4856,-0.1328,-0.4152,-0.8744,2.476,-5.381,-1.671
1772932315343.4856,-0.1365,-0.4166,-0.8756,2.223,-5.478,-1.68
1772932315343.4856,-0.1368,-0.4188,-0.8768,2.205,-5.268,-1.916
1772932315343.4856,-0.1374,-0.4176,-0.8745,2.021,-5.46,-1.514
1772932315359.582,-0.1361,-0.4193,-0.8732,1.732,-5.495,-1.601
1772932315359.582,-0.136,-0.42,-0.8742,1.689,-5.346,-1.216
1772932315359.582,-0.1365,-0.4246,-0.8747,1.426,-5.617,-1.4
1772932315359.582,-0.1346,-0.4262,-0.8758,1.444,-5.775,-1.181
1772932315374.6946,-0.1365,-0.4245,-0.8752,1.601,-5.889,-0.936
1772932315374.6946,-0.1396,-0.4215,-0.8739,1.759,-5.793,-1.006
1772932315374.6946,-0.1383,-0.4214,-0.8738,1.969,-5.994,-0.91
1772932315374.6946,-0.1393,-0.418,-0.8763,2.345,-5.793,-0.534
1772932315374.6946,-0.1377,-0.4165,-0.8771,2.809,-5.53,-0.718
1772932315391.2283,-0.1349,-0.4143,-0.876,2.94,-5.749,-0.691
1772932315391.2283,-0.1319,-0.4139,-0.881,3.027,-5.801,-0.726
1772932315391.2283,-0.1296,-0.4084,-0.881,2.844,-5.688,-0.971
1772932315391.2283,-0.1312,-0.4062,-0.8811,2.958,-6.116,-1.216
1772932315406.764,-0.1325,-0.4042,-0.883,2.634,-5.565,-1.33
1772932315406.764,-0.1381,-0.4018,-0.8849,2.467,-5.793,-1.54
1772932315406.764,-0.1371,-0.4025,-0.8841,2.485,-5.897,-1.522
1772932315423.2878,-0.1368,-0.4021,-0.884,2.572,-5.679,-1.619
1772932315423.2878,-0.1367,-0.4059,-0.8823,2.616,-5.582,-1.347
1772932315423.2878,-0.1357,-0.4086,-0.8852,2.17,-5.784,-1.321
1772932315423.2878,-0.1347,-0.4097,-0.8843,2.056,-5.976,-1.103
1772932315438.8823,-0.1363,-0.4137,-0.8828,2.188,-5.915,-1.566
1772932315438.8823,-0.1399,-0.4154,-0.8774,1.934,-5.819,-1.304
1772932315438.8823,-0.1385,-0.4177,-0.8788,1.689,-6.107,-1.514
1772932315438.8823,-0.1382,-0.4158,-0.8752,1.654,-5.836,-1.339
1772932315454.8337,-0.1403,-0.4157,-0.8784,1.522,-6.011,-1.164
1772932315454.8337,-0.1418,-0.4158,-0.8779,1.488,-6.195,-1.19
1772932315454.8337,-0.1418,-0.4134,-0.88,1.846,-6.055,-1.173
1772932315454.8337,-0.1385,-0.4128,-0.8777,1.829,-6.484,-1.024
1772932315470.3796,-0.1386,-0.4124,-0.8782,1.899,-5.959,-1.575
1772932315470.3796,-0.1383,-0.4113,-0.8772,1.916,-6.457,-1.435
1772932315470.3796,-0.1421,-0.4089,-0.8784,2.152,-6.064,-1.426
1772932315470.3796,-0.1411,-0.4114,-0.8781,2.467,-5.906,-1.19
1772932315470.3796,-0.1402,-0.4138,-0.882,2.249,-5.959,-1.137
1772932315486.9106,-0.1399,-0.4102,-0.8804,2.511,-5.652,-1.111
1772932315486.9106,-0.1372,-0.4132,-0.8799,2.415,-5.626,-1.19
1772932315486.9106,-0.1402,-0.4128,-0.8793,2.257,-5.758,-1.129
1772932315486.9106,-0.1437,-0.4133,-0.8813,2.249,-5.329,-1.216
1772932315502.6382,-0.1418,-0.4118,-0.8843,2.109,-5.67,-1.129
1772932315502.6382,-0.1399,-0.4119,-0.88,2.292,-5.968,-1.286
1772932315502.6382,-0.143,-0.4097,-0.8811,2.38,-6.046,-1.208
1772932315502.6382,-0.142,-0.408,-0.8793,2.467,-5.915,-1.356
1772932315517.7053,-0.1415,-0.4068,-0.8829,2.275,-6.02,-1.347
1772932315517.7053,-0.1389,-0.4072,-0.8804,2.188,-6.055,-1.522
1772932315517.7053,-0.1364,-0.4089,-0.8821,2.047,-6.037,-1.365
1772932315533.8665,-0.1368,-0.4103,-0.8804,2.056,-6.23,-1.444
1772932315533.8665,-0.1387,-0.408,-0.8778,2.013,-6.291,-1.19
1772932315533.8665,-0.138,-0.4016,-0.8796,1.645,-6.16,-1.426
1772932315533.8665,-0.1352,-0.4113,-0.8752,1.741,-6.51,-1.759
1772932315549.4412,-0.1396,-0.4133,-0.8747,2.004,-6.475,-1.488
1772932315549.4412,-0.1387,-0.4133,-0.8728,1.925,-6.169,-1.085
1772932315549.4412,-0.1381,-0.4081,-0.8791,1.68,-5.652,-1.05
1772932315549.4412,-0.1332,-0.4047,-0.879,1.837,-5.897,-1.689
1772932315549.4412,-0.1363,-0.4056,-0.8775,2.126,-5.644,-1.741
1772932315564.8997,-0.1346,-0.4092,-0.8777,1.741,-6.143,-1.759
1772932315564.8997,-0.1354,-0.4152,-0.8779,2.065,-6.125,-1.514
1772932315564.8997,-0.1335,-0.4138,-0.8759,2.433,-5.854,-1.452
1772932315564.8997,-0.1546,-0.4161,-0.8779,2.538,-5.968,-1.208
1772932315580.3987,-0.1407,-0.416,-0.8775,2.354,-6.116,-1.488
1772932315580.3987,-0.1405,-0.413,-0.8773,2.739,-6.125,-1.33
1772932315580.3987,-0.1394,-0.4153,-0.878,2.581,-6.431,-1.522
1772932315580.3987,-0.143,-0.4144,-0.881,2.529,-6.431,-1.68
1772932315596.983,-0.1399,-0.4122,-0.878,2.678,-6.116,-1.575
1772932315596.983,-0.1401,-0.4071,-0.8774,2.73,-6.44,-1.627
1772932315596.983,-0.1381,-0.4091,-0.878,2.564,-6.265,-1.89
1772932315596.983,-0.1346,-0.4091,-0.8796,2.748,-6.562,-1.698
1772932315613.2004,-0.1367,-0.4075,-0.8811,2.739,-6.711,-1.706
1772932315613.2004,-0.1381,-0.406,-0.8769,2.581,-6.151,-1.505
1772932315613.2004,-0.1359,-0.4056,-0.8808,2.896,-6.291,-1.54
1772932315613.2004,-0.1377,-0.4055,-0.8796,2.993,-6.326,-1.654
1772932315613.2004,-0.1367,-0.4058,-0.8818,2.922,-6.046,-1.531
1772932315629.4487,-0.1377,-0.4074,-0.8825,2.817,-6.3,-1.549
1772932315629.4487,-0.1368,-0.4074,-0.8801,2.643,-6.003,-1.706
1772932315629.4487,-0.1384,-0.4094,-0.8799,2.66,-5.976,-1.75
1772932315629.4487,-0.1351,-0.4118,-0.8808,2.669,-5.985,-1.654
1772932315645.5208,-0.1356,-0.4122,-0.8819,2.406,-6.388,-1.522
1772932315645.5208,-0.1347,-0.4172,-0.8816,2.362,-5.906,-1.304
1772932315645.5208,-0.1355,-0.4199,-0.877,2.249,-6.143,-1.269
1772932315660.5886,-0.1378,-0.4226,-0.8777,2.301,-6.02,-1.067
1772932315660.5886,-0.1349,-0.4196,-0.8761,2.406,-5.906,-1.269
1772932315660.5886,-0.1387,-0.4199,-0.8778,2.179,-5.819,-0.963
1772932315660.5886,-0.1394,-0.4185,-0.8771,2.397,-5.95,-1.19
1772932315676.1426,-0.139,-0.4161,-0.8766,2.643,-5.705,-1.146
1772932315676.1426,-0.139,-0.4132,-0.8778,2.31,-6.107,-1.4
1772932315676.1426,-0.1391,-0.4109,-0.8735,2.196,-5.836,-1.601
1772932315676.1426,-0.1401,-0.4088,-0.8757,2.389,-6.134,-1.383
1772932315691.7095,-0.1398,-0.41,-0.876,2.292,-6.072,-1.391
1772932315691.7095,-0.1405,-0.408,-0.8776,2.179,-6.326,-1.278
1772932315691.7095,-0.1412,-0.4059,-0.8773,2.406,-6.37,-1.365
1772932315691.7095,-0.1402,-0.408,-0.8739,2.091,-6.143,-1.627
1772932315691.7095,-0.1391,-0.4104,-0.8752,1.881,-6.143,-1.286
1772932315707.0254,-0.1382,-0.4099,-0.8766,2.161,-5.994,-1.374
1772932315707.0254,-0.1375,-0.4113,-0.8712,1.794,-5.495,-1.269
1772932315723.219,-0.1381,-0.4105,-0.876,2.056,-5.994,-1.391
1772932315723.219,-0.1378,-0.413,-0.8775,2.38,-6.213,-1.663
1772932315723.219,-0.1393,-0.4133,-0.8783,2.643,-6.134,-1.251
1772932315723.219,-0.141,-0.4108,-0.8774,2.634,-5.854,-1.05
1772932315723.219,-0.138,-0.4088,-0.8797,2.73,-5.346,-1.085
1772932315738.9111,-0.1399,-0.4086,-0.8822,2.783,-5.224,-0.77
1772932315738.9111,-0.141,-0.4064,-0.8832,2.721,-5.197,-0.901
1772932315738.9111,-0.1406,-0.4061,-0.885,2.879,-5.39,-0.945
1772932315738.9111,-0.137,-0.406,-0.8858,2.651,-5.399,-1.426
1772932315754.8271,-0.1359,-0.4105,-0.888,2.52,-5.827,-1.837
1772932315754.8271,-0.1343,-0.4156,-0.8798,1.68,-6.16,-1.724
1772932315754.8271,-0.1376,-0.4203,-0.8729,0.569,-6.23,-2.004
1772932315754.8271,-0.1373,-0.4178,-0.8735,0.289,-6.457,-2.17
1772932315769.5564,-0.141,-0.4123,-0.8712,0.201,-6.457,-2.319
1772932315769.5564,-0.1438,-0.4078,-0.8713,1.015,-6.545,-2.214
1772932315769.5564,-0.1427,-0.4084,-0.8714,1.47,-6.37,-2.03
1772932315769.5564,-0.1452,-0.4048,-0.8777,2.599,-6.247,-1.829
1772932315769.5564,-0.1429,-0.403,-0.8775,3.019,-6.055,-1.173
1772932315785.9119,-0.1424,-0.4053,-0.8812,3.623,-5.276,-1.242
1772932315785.9119,-0.1371,-0.4137,-0.8812,3.124,-4.812,-1.12
1772932315785.9119,-0.1354,-0.4183,-0.8795,2.266,-4.384,-0.726
1772932315785.9119,-0.1322,-0.4181,-0.8813,1.234,-4.603,-0.875
1772932315801.9841,-0.1316,-0.4146,-0.8804,0.49,-4.891,-0.884
1772932315801.9841,-0.1371,-0.4047,-0.8783,0.228,-4.751,-0.998
1772932315801.9841,-0.1424,-0.4015,-0.8769,1.295,-5.294,-0.954
1772932315801.9841,-0.1491,-0.4052,-0.8739,1.759,-4.909,-1.059
1772932315817.5684,-0.144,-0.4135,-0.869,2.284,-4.856,-0.805
1772932315817.5684,-0.1368,-0.4178,-0.8686,1.925,-4.393,-0.647
1772932315817.5684,-0.133,-0.4107,-0.8693,0.884,-4.436,-0.429
1772932315833.872,-0.1332,-0.4062,-0.8723,0.516,-4.926,-0.682
1772932315833.872,-0.1358,-0.4045,-0.8724,0.569,-5.294,-0.831
1772932315833.872,-0.1404,-0.4076,-0.8661,0.7,-5.268,-1.514
1772932315833.872,-0.1416,-0.4086,-0.8637,0.963,-5.696,-1.663
1772932315849.553,-0.1463,-0.4038,-0.8674,1.61,-5.539,-1.505
1772932315849.553,-0.1453,-0.3992,-0.8669,2.249,-5.941,-1.864
1772932315849.553,-0.1486,-0.4003,-0.8741,2.966,-5.731,-1.855
1772932315849.553,-0.1522,-0.4009,-0.8819,4.218,-5.688,-2.126
1772932315864.831,-0.1532,-0.3999,-0.8871,4.48,-6.134,-2.275
1772932315864.831,-0.1513,-0.4013,-0.8937,5.04,-5.941,-2.144
1772932315864.831,-0.1505,-0.4039,-0.898,5.119,-6.011,-1.916
1772932315864.831,-0.1491,-0.4072,-0.9038,5.031,-5.994,-2.257
1772932315864.831,-0.1441,-0.4118,-0.9022,4.393,-5.906,-1.636
1772932315880.176,-0.14,-0.4158,-0.8993,3.447,-5.933,-1.383
1772932315880.176,-0.133,-0.4198,-0.895,3.019,-5.652,-1.19
1772932315880.176,-0.1298,-0.4191,-0.892,2.546,-5.88,-1.199
1772932315880.176,-0.126,-0.4185,-0.8902,1.794,-5.626,-0.936
1772932315895.852,-0.1283,-0.4193,-0.8861,1.951,-5.565,-0.892
1772932315895.852,-0.1283,-0.4177,-0.8857,1.986,-5.381,-0.858
1772932315895.852,-0.1285,-0.4152,-0.8851,2.275,-5.338,-1.242
1772932315911.4146,-0.1323,-0.4158,-0.8825,2.17,-5.574,-1.347
1772932315911.4146,-0.1347,-0.4153,-0.8805,2.214,-5.478,-1.514
1772932315911.4146,-0.1362,-0.4149,-0.8824,1.96,-5.425,-1.724
1772932315911.4146,-0.1364,-0.4149,-0.8822,2.135,-5.688,-1.61
1772932315926.6218,-0.1385,-0.4103,-0.8797,2.415,-5.801,-1.68
1772932315926.6218,-0.1387,-0.4092,-0.8769,2.345,-5.696,-1.776
1772932315926.6218,-0.1407,-0.4124,-0.8742,2.459,-5.364,-1.873
1772932315926.6218,-0.1398,-0.4111,-0.8722,2.415,-5.495,-2.205
1772932315942.1697,-0.1371,-0.4088,-0.8741,2.135,-5.311,-1.864
1772932315942.1697,-0.1385,-0.4066,-0.8756,1.645,-5.6,-1.759
1772932315942.1697,-0.1411,-0.4061,-0.8742,1.601,-5.994,-1.645
1772932315942.1697,-0.141,-0.4046,-0.8753,1.26,-5.574,-1.566
1772932315942.1697,-0.1448,-0.4027,-0.871,1.409,-5.53,-1.234
1772932315957.7336,-0.141,-0.4043,-0.8723,1.19,-5.793,-1.391
1772932315957.7336,-0.1401,-0.4043,-0.8747,1.059,-5.897,-1.304
1772932315957.7336,-0.1398,-0.4035,-0.8743,1.417,-5.67,-1.12
1772932315957.7336,-0.1396,-0.4039,-0.8723,1.575,-5.845,-1.601
1772932315973.2883,-0.1402,-0.4021,-0.8733,1.776,-5.416,-1.689
1772932315973.2883,-0.1416,-0.4031,-0.8738,1.732,-5.609,-1.654
1772932315973.2883,-0.1441,-0.4021,-0.8757,2.047,-5.617,-1.514
1772932315988.874,-0.1427,-0.4051,-0.8752,2.118,-5.635,-1.811
1772932315988.874,-0.142,-0.4038,-0.8744,2.502,-5.504,-1.645
1772932315988.874,-0.1457,-0.4027,-0.876,2.712,-5.6,-1.645
1772932315988.874,-0.1437,-0.403,-0.8756,2.581,-4.979,-1.96
1772932316004.424,-0.1439,-0.4042,-0.8799,2.616,-5.504,-1.846
1772932316004.424,-0.1445,-0.4049,-0.8813,2.896,-5.162,-1.82
1772932316004.424,-0.1462,-0.4035,-0.8773,2.844,-5.171,-2.065
1772932316004.424,-0.1443,-0.4038,-0.8799,2.835,-5.346,-1.82
1772932316019.7258,-0.1435,-0.4055,-0.8839,2.975,-5.022,-1.942
1772932316019.7258,-0.1405,-0.4058,-0.8822,2.879,-5.093,-1.785
1772932316019.7258,-0.1382,-0.4069,-0.8843,2.774,-5.101,-1.278
1772932316019.7258,-0.138,-0.4085,-0.8829,2.791,-4.856,-1.444
1772932316019.7258,-0.138,-0.4076,-0.8855,2.572,-5.04,-1.54
1772932316034.9854,-0.1366,-0.4089,-0.8849,2.66,-4.9,-1.654
1772932316034.9854,-0.1371,-0.4101,-0.8873,2.931,-5.346,-1.759
1772932316034.9854,-0.1358,-0.4124,-0.8879,2.914,-5.469,-1.802
1772932316034.9854,-0.1355,-0.4128,-0.8873,2.669,-5.294,-1.759
1772932316050.3328,-0.1391,-0.4119,-0.8861,2.783,-5.425,-1.619
1772932316050.3328,-0.1416,-0.4087,-0.888,2.791,-5.67,-1.942
1772932316050.3328,-0.1446,-0.4092,-0.8905,3.439,-5.74,-1.732
1772932316066.6165,-0.1451,-0.4095,-0.8894,3.316,-5.871,-1.759
1772932316066.6165,-0.1434,-0.4105,-0.8885,3.377,-5.74,-1.54
1772932316066.6165,-0.1391,-0.4107,-0.8911,3.229,-5.609,-1.575
1772932316066.6165,-0.1386,-0.4091,-0.8901,3.027,-5.688,-1.312
1772932316082.658,-0.1376,-0.4085,-0.8889,2.861,-5.924,-1.269
1772932316082.658,-0.1383,-0.4082,-0.8856,2.607,-6.204,-1.4
1772932316082.658,-0.1382,-0.4139,-0.8811,2.1,-5.775,-1.12
1772932316082.658,-0.134,-0.4142,-0.8789,1.802,-5.67,-1.505
1772932316098.7026,-0.1303,-0.4117,-0.8761,1.706,-5.338,-1.032
1772932316098.7026,-0.1312,-0.4108,-0.874,1.199,-5.399,-0.989
1772932316098.7026,-0.1318,-0.4083,-0.8742,1.391,-5.478,-0.963
1772932316098.7026,-0.1344,-0.4025,-0.8736,1.566,-5.635,-1.059
1772932316114.7576,-0.1377,-0.4038,-0.8711,2.188,-5.871,-1.286
1772932316114.7576,-0.1375,-0.4014,-0.8707,2.704,-5.723,-1.619
1772932316114.7576,-0.1384,-0.4,-0.8713,3.194,-5.784,-1.899
1772932316114.7576,-0.1404,-0.3977,-0.875,3.308,-5.758,-2.056
1772932316114.7576,-0.1425,-0.3967,-0.8786,3.535,-5.968,-2.38
1772932316130.3127,-0.1418,-0.3983,-0.8775,3.5,-5.801,-2.196
1772932316130.3127,-0.1463,-0.4019,-0.8785,3.316,-5.469,-1.873
1772932316130.3127,-0.1456,-0.4044,-0.879,2.888,-5.521,-1.68
1772932316130.3127,-0.1454,-0.4063,-0.8778,2.861,-5.661,-1.759
1772932316145.586,-0.1446,-0.405,-0.8781,2.538,-5.723,-1.61
1772932316145.586,-0.1418,-0.4046,-0.8769,2.441,-5.793,-1.514
1772932316145.586,-0.1363,-0.4056,-0.874,2.538,-5.425,-1.488
1772932316160.7644,-0.138,-0.4095,-0.8749,2.502,-5.303,-1.636
1772932316160.7644,-0.1374,-0.4111,-0.8786,2.695,-5.495,-1.549
1772932316160.7644,-0.139,-0.411,-0.8797,2.975,-4.856,-1.067
1772932316160.7644,-0.1375,-0.4107,-0.8793,3.062,-4.699,-0.919
1772932316175.8218,-0.1362,-0.4079,-0.8814,2.966,-4.725,-1.05
1772932316175.8218,-0.1388,-0.4075,-0.8833,3.22,-4.935,-1.164
1772932316175.8218,-0.1368,-0.4115,-0.884,3.447,-4.987,-1.12
1772932316175.8218,-0.1365,-0.4089,-0.8846,3.509,-5.232,-1.356
1772932316191.4092,-0.1369,-0.4104,-0.8852,3.587,-5.04,-1.601
1772932316191.4092,-0.1365,-0.4119,-0.8872,3.456,-5.058,-1.505
1772932316191.4092,-0.1347,-0.4095,-0.8804,3.64,-5.093,-1.304
1772932316191.4092,-0.1366,-0.4085,-0.8807,3.395,-4.996,-1.225
1772932316191.4092,-0.1374,-0.4056,-0.8835,3.342,-5.058,-1.452
1772932316206.5527,-0.1405,-0.4042,-0.8833,3.237,-4.839,-1.225
1772932316206.5527,-0.1384,-0.4065,-0.8864,3.15,-5.162,-1.409
1772932316221.5896,-0.1375,-0.4058,-0.8822,3.159,-4.909,-1.321
1772932316221.5896,-0.1362,-0.4063,-0.884,2.949,-4.865,-1.461
1772932316221.5896,-0.1376,-0.4059,-0.8837,3.159,-5.259,-1.417
1772932316221.5896,-0.1388,-0.4054,-0.8821,2.704,-4.856,-1.356
1772932316221.5896,-0.1382,-0.4089,-0.8847,2.643,-5.058,-1.654
1772932316236.6367,-0.1368,-0.4084,-0.8791,2.538,-5.416,-1.549
1772932316236.6367,-0.1361,-0.4103,-0.8816,2.485,-5.215,-1.558
1772932316236.6367,-0.1392,-0.4101,-0.8832,2.292,-5.39,-1.575
1772932316236.6367,-0.1366,-0.4102,-0.8791,2.257,-5.442,-1.452
1772932316252.6785,-0.1368,-0.4122,-0.8782,1.978,-5.372,-1.645
1772932316252.6785,-0.1387,-0.4139,-0.8799,2.249,-5.521,-1.593
1772932316252.6785,-0.1357,-0.4153,-0.8764,1.969,-5.626,-1.627
1772932316252.6785,-0.1379,-0.4136,-0.8789,1.96,-5.688,-1.505
1772932316268.753,-0.1394,-0.411,-0.8789,2.039,-6.02,-1.365
1772932316268.753,-0.1389,-0.4075,-0.8752,2.371,-6.055,-1.61
1772932316268.753,-0.1394,-0.4069,-0.8763,2.555,-5.924,-1.356
1772932316268.753,-0.1397,-0.4073,-0.8753,3.106,-6.011,-1.96
1772932316268.753,-0.1424,-0.4064,-0.8769,3.246,-5.95,-1.558
1772932316284.796,-0.1406,-0.4035,-0.8783,3.413,-5.81,-1.864
1772932316284.796,-0.1399,-0.4021,-0.879,3.325,-5.696,-1.698
1772932316300.3496,-0.1398,-0.4027,-0.8826,3.377,-5.661,-1.96
1772932316300.3496,-0.139,-0.4025,-0.8805,3.001,-5.6,-1.96
1772932316300.3496,-0.1423,-0.4025,-0.8832,3.098,-5.679,-2.188
1772932316300.3496,-0.1418,-0.4029,-0.8799,3.185,-5.626,-2.004
1772932316300.3496,-0.1396,-0.4051,-0.8794,3.089,-5.478,-2.126
1772932316316.8872,-0.1411,-0.4071,-0.8805,3.062,-5.268,-2.004
1772932316316.8872,-0.1397,-0.4085,-0.8797,2.826,-5.18,-1.479
1772932316316.8872,-0.1418,-0.4116,-0.8814,2.826,-5.101,-1.732
1772932316316.8872,-0.1413,-0.4111,-0.88,2.87,-5.18,-1.347
1772932316332.9187,-0.141,-0.416,-0.8832,2.817,-5.136,-1.094
1772932316332.9187,-0.1415,-0.416,-0.8806,2.634,-5.136,-1.041
1772932316332.9187,-0.1413,-0.4138,-0.8814,3.15,-5.18,-1.094
1772932316332.9187,-0.1417,-0.4124,-0.8772,2.572,-5.338,-1.032
1772932316349.4558,-0.1416,-0.4129,-0.878,2.651,-5.416,-0.787
1772932316349.4558,-0.1434,-0.4092,-0.8813,2.397,-5.425,-0.858
1772932316349.4558,-0.1417,-0.406,-0.8764,2.844,-5.486,-0.691
1772932316349.4558,-0.1374,-0.405,-0.8784,2.765,-5.565,-0.91
1772932316365.0486,-0.1378,-0.4049,-0.8769,3.027,-5.548,-0.884
1772932316365.0486,-0.1366,-0.4028,-0.8752,2.905,-5.591,-1.146
1772932316365.0486,-0.1368,-0.4016,-0.8746,2.922,-5.232,-0.989
1772932316365.0486,-0.1343,-0.4002,-0.8766,2.984,-5.513,-1.452
1772932316365.0486,-0.1362,-0.3993,-0.8743,2.949,-5.539,-1.68
1772932316380.3115,-0.1349,-0.404,-0.8733,2.888,-5.425,-1.899
1772932316380.3115,-0.134,-0.403,-0.8744,2.94,-5.548,-1.785
1772932316380.3115,-0.1377,-0.4039,-0.8761,3.08,-5.548,-2.109
1772932316380.3115,-0.1408,-0.4051,-0.8752,2.94,-5.171,-2.056
1772932316395.8733,-0.1407,-0.4073,-0.8746,3.203,-4.97,-1.811
1772932316395.8733,-0.1403,-0.4096,-0.8775,3.272,-5.259,-1.925
1772932316395.8733,-0.1407,-0.4105,-0.8761,3.561,-5.136,-1.75
1772932316411.2444,-0.14,-0.4085,-0.878,3.316,-4.891,-1.47
1772932316411.2444,-0.1393,-0.4086,-0.8792,3.614,-5.101,-1.925
1772932316411.2444,-0.1413,-0.4102,-0.8796,3.526,-5.049,-1.794
1772932316411.2444,-0.1409,-0.4107,-0.8799,3.684,-5.075,-2.021
1772932316426.7866,-0.1402,-0.4077,-0.881,3.614,-5.04,-2.074
1772932316426.7866,-0.139,-0.4096,-0.8811,3.579,-5.311,-2.065
1772932316426.7866,-0.1379,-0.4106,-0.8791,3.806,-5.32,-1.811
1772932316426.7866,-0.139,-0.4072,-0.8841,3.692,-5.093,-1.715
1772932316442.3247,-0.1419,-0.4101,-0.8821,3.666,-5.303,-1.663
1772932316442.3247,-0.1411,-0.4083,-0.8846,3.57,-5.215,-1.732
1772932316442.3247,-0.1394,-0.4088,-0.8829,3.369,-5.162,-1.391
1772932316442.3247,-0.1399,-0.4088,-0.8799,3.045,-5.39,-1.47
1772932316442.3247,-0.1371,-0.4082,-0.8811,3.404,-5.346,-1.593
1772932316457.903,-0.1355,-0.41,-0.882,3.159,-5.285,-1.575
1772932316457.903,-0.1366,-0.4089,-0.8783,3.115,-5.338,-1.61
1772932316457.903,-0.1371,-0.4085,-0.8785,3.132,-5.32,-1.724
1772932316457.903,-0.1371,-0.4091,-0.8799,2.931,-5.171,-1.409
1772932316473.9338,-0.1404,-0.4068,-0.8795,3.185,-5.582,-1.365
1772932316473.9338,-0.1379,-0.4069,-0.8777,3.106,-5.407,-1.321
1772932316473.9338,-0.1368,-0.4076,-0.881,3.159,-5.171,-1.514
1772932316473.9338,-0.1354,-0.4094,-0.8805,3.623,-5.215,-1.488
1772932316489.5889,-0.1376,-0.4103,-0.8787,3.518,-5.486,-1.689
1772932316489.5889,-0.1356,-0.4097,-0.8796,3.719,-5.521,-1.881
1772932316489.5889,-0.1333,-0.4102,-0.8777,3.745,-5.276,-1.531
1772932316505.2297,-0.1369,-0.4099,-0.8828,3.938,-5.162,-1.619
1772932316505.2297,-0.1361,-0.4116,-0.8832,3.92,-5.241,-1.715
1772932316505.2297,-0.135,-0.4097,-0.8851,4.008,-5.215,-1.505
1772932316505.2297,-0.1369,-0.4113,-0.8798,3.824,-5.128,-1.435
1772932316521.321,-0.1373,-0.4108,-0.8827,4.121,-5.434,-1.505
1772932316521.321,-0.1346,-0.4113,-0.8825,4.008,-5.294,-1.304
1772932316521.321,-0.1357,-0.4107,-0.8811,3.815,-5.355,-1.356
1772932316521.321,-0.1329,-0.4123,-0.8796,3.701,-5.338,-1.435
1772932316521.321,-0.1368,-0.4114,-0.8786,3.675,-5.259,-1.558
1772932316536.5684,-0.1347,-0.4084,-0.8777,3.535,-5.128,-1.383
1772932316536.5684,-0.1377,-0.4084,-0.8769,3.5,-5.364,-1.321
1772932316536.5684,-0.1383,-0.408,-0.8763,3.675,-5.381,-1.383
1772932316536.5684,-0.1376,-0.4074,-0.8758,3.509,-5.197,-1.216
1772932316552.4277,-0.1406,-0.4073,-0.8751,3.447,-5.303,-1.278
1772932316552.4277,-0.139,-0.407,-0.8763,3.377,-5.495,-1.12
1772932316552.4277,-0.1395,-0.4062,-0.8766,3.229,-5.268,-1.514
1772932316552.4277,-0.1403,-0.4095,-0.8761,3.132,-5.355,-1.426
1772932316568.0454,-0.1399,-0.408,-0.8786,2.87,-5.311,-1.488
1772932316568.0454,-0.1399,-0.4074,-0.877,3.071,-5.285,-1.846
1772932316568.0454,-0.1371,-0.4085,-0.877,2.922,-5.338,-1.925
1772932316583.898,-0.1369,-0.4111,-0.878,3.185,-5.171,-1.732
1772932316583.898,-0.1391,-0.4121,-0.8756,3.281,-5.18,-1.907
1772932316583.898,-0.1379,-0.413,-0.8781,3.272,-5.268,-2.091
1772932316583.898,-0.1386,-0.4132,-0.8764,3.631,-5.101,-1.986
1772932316599.5344,-0.1396,-0.4132,-0.8759,3.754,-4.83,-1.54
1772932316599.5344,-0.1402,-0.4132,-0.8785,3.911,-4.646,-1.409
1772932316599.5344,-0.1419,-0.4114,-0.8816,3.973,-4.804,-1.26
1772932316599.5344,-0.1425,-0.41,-0.8821,3.973,-4.559,-1.129
1772932316615.0781,-0.1418,-0.3921,-0.8813,4.139,-4.375,-0.858
1772932316615.0781,-0.1412,-0.4029,-0.8831,4.331,-4.497,-0.709
1772932316615.0781,-0.1371,-0.4058,-0.8839,4.559,-4.445,-1.137
1772932316615.0781,-0.1388,-0.4086,-0.8848,4.594,-4.463,-1.409
1772932316615.0781,-0.1368,-0.4097,-0.8826,4.165,-4.559,-1.444
1772932316630.1536,-0.1358,-0.4166,-0.8822,3.264,-4.76,-1.768
1772932316630.1536,-0.1327,-0.4247,-0.8769,2.135,-5.372,-1.654
1772932316630.1536,-0.1356,-0.4268,-0.8744,1.654,-5.346,-1.54
1772932316630.1536,-0.1376,-0.4175,-0.8735,1.199,-5.696,-1.698
