Time_ms,ax,ay,az,gx,gy,gz
1772933778878.298,-0.0428,-0.0423,-0.9773,3.316,-9.852,-1.286
1772933778878.298,-0.0406,-0.0453,-0.9798,3.561,-9.826,-1.575
1772933778878.298,-0.0439,-0.0436,-0.9811,3.465,-10.098,-1.566
1772933778878.298,-0.0436,-0.0436,-0.9792,3.447,-10.159,-1.627
1772933778878.298,-0.042,-0.0451,-0.9797,3.246,-10.115,-1.698
1772933778878.298,-0.0415,-0.0461,-0.9786,3.255,-9.818,-1.663
1772933778878.298,-0.0447,-0.0447,-0.9814,3.15,-9.73,-1.452
1772933778878.298,-0.0434,-0.0448,-0.9817,3.15,-10.176,-1.759
1772933778878.298,-0.0454,-0.0447,-0.9782,3.377,-9.896,-1.724
1772933778878.298,-0.0443,-0.0417,-0.983,3.334,-9.73,-1.654
1772933778878.298,-0.0429,-0.0439,-0.9824,3.526,-9.695,-1.4
1772933778878.298,-0.0448,-0.0409,-0.9814,3.36,-9.686,-1.549
1772933778894.3242,-0.0438,-0.0425,-0.9825,3.754,-9.643,-1.391
1772933778894.3242,-0.0452,-0.0434,-0.9827,3.439,-9.8,-1.671
1772933778894.3242,-0.0411,-0.0448,-0.9833,3.482,-9.625,-1.724
1772933778894.3242,-0.0434,-0.0409,-0.9841,3.587,-9.599,-1.671
1772933778894.3242,-0.0433,-0.0412,-0.9842,3.544,-9.73,-1.715
1772933778894.3242,-0.0453,-0.0414,-0.9805,3.684,-9.643,-1.496
1772933778894.3242,-0.044,-0.0404,-0.9823,3.833,-9.66,-1.356
1772933778894.3242,-0.0447,-0.042,-0.9818,3.666,-9.59,-1.549
1772933778894.3242,-0.0449,-0.0429,-0.9817,3.771,-9.713,-1.802
1772933778894.3242,-0.0448,-0.0418,-0.9816,3.439,-9.809,-1.636
1772933778894.3242,-0.0438,-0.0433,-0.9782,3.561,-9.783,-1.689
1772933778894.3242,-0.0474,-0.0414,-0.982,3.587,-9.643,-1.575
1772933778894.3242,-0.0475,-0.0425,-0.9805,3.78,-9.896,-1.558
1772933778909.8538,-0.0454,-0.0445,-0.9797,3.736,-9.835,-1.706
1772933778909.8538,-0.0443,-0.041,-0.9841,3.631,-9.94,-1.698
1772933778909.8538,-0.0433,-0.0425,-0.9831,3.447,-9.835,-1.811
1772933778909.8538,-0.0464,-0.0429,-0.9834,3.658,-9.739,-1.61
1772933778909.8538,-0.0457,-0.0432,-0.983,3.623,-10.019,-1.741
1772933778909.8538,-0.0472,-0.0437,-0.9826,3.57,-9.905,-1.811
1772933778909.8538,-0.0492,-0.0451,-0.9825,3.518,-10.036,-1.75
1772933778909.8538,-0.0473,-0.0448,-0.9781,3.553,-9.887,-1.776
1772933778909.8538,-0.0483,-0.0459,-0.9794,3.369,-10.01,-1.881
1772933778909.8538,-0.0483,-0.0445,-0.9769,3.447,-9.992,-1.811
1772933778909.8538,-0.0463,-0.0454,-0.9776,3.272,-9.756,-1.785
1772933778909.8538,-0.0461,-0.0456,-0.9769,3.237,-9.826,-1.698
1772933778925.4014,-0.0468,-0.047,-0.9771,3.308,-9.87,-1.995
1772933778925.4014,-0.0479,-0.0481,-0.9763,3.194,-9.783,-1.916
1772933778925.4014,-0.0476,-0.0472,-0.9772,3.098,-9.607,-1.82
1772933778925.4014,-0.0483,-0.0476,-0.9756,3.115,-9.599,-1.82
1772933778925.4014,-0.0507,-0.047,-0.9777,3.159,-9.651,-1.864
1772933778925.4014,-0.0486,-0.0481,-0.9782,2.861,-9.441,-1.855
1772933778925.4014,-0.047,-0.048,-0.9768,2.73,-9.345,-1.75
1772933778925.4014,-0.0479,-0.0476,-0.9755,2.922,-9.476,-1.601
1772933778925.4014,-0.0493,-0.0459,-0.975,2.922,-9.783,-1.732
1772933778925.4014,-0.0481,-0.0467,-0.974,2.643,-9.336,-1.619
1772933778925.4014,-0.0478,-0.0493,-0.9755,2.765,-9.363,-1.785
1772933778925.4014,-0.0494,-0.0473,-0.9706,2.94,-9.52,-1.829
1772933778925.4014,-0.05,-0.0472,-0.9726,2.756,-9.24,-1.68
1772933778941.439,-0.0495,-0.0486,-0.9722,2.66,-9.31,-1.802
1772933778941.439,-0.0502,-0.0472,-0.9748,2.581,-8.934,-1.785
1772933778941.439,-0.0489,-0.0492,-0.976,2.625,-9.065,-1.689
1772933778941.439,-0.049,-0.0479,-0.9733,2.643,-9.188,-1.785
1772933778941.439,-0.0522,-0.0487,-0.9744,2.433,-9.065,-1.741
1772933778941.439,-0.051,-0.045,-0.9749,2.371,-9.012,-1.654
1772933778941.439,-0.05,-0.0457,-0.9732,2.301,-8.75,-1.654
1772933778941.439,-0.0501,-0.0475,-0.9735,2.275,-8.82,-1.776
1772933778941.439,-0.0508,-0.0458,-0.9739,2.214,-9.021,-1.829
1772933778941.439,-0.0498,-0.0468,-0.9749,2.188,-8.977,-1.873
1772933778941.439,-0.0517,-0.0459,-0.9749,2.389,-8.934,-1.837
1772933778941.439,-0.0511,-0.0432,-0.9767,2.275,-9.1,-1.741
1772933778941.439,-0.0509,-0.0436,-0.9761,2.371,-8.846,-1.82
1772933778957.0273,-0.0488,-0.045,-0.9734,2.126,-8.864,-1.627
1772933778957.0273,-0.0508,-0.0436,-0.9737,2.074,-8.759,-1.496
1772933778957.0273,-0.0535,-0.0432,-0.9755,2.083,-8.811,-1.829
1772933778957.0273,-0.0506,-0.0437,-0.9722,2.144,-8.636,-2.065
1772933778957.0273,-0.0515,-0.042,-0.9762,2.223,-8.724,-2.039
1772933778957.0273,-0.0522,-0.0449,-0.9758,2.257,-8.995,-1.855
1772933778957.0273,-0.0531,-0.0418,-0.9769,2.039,-8.706,-1.881
1772933778957.0273,-0.0529,-0.0436,-0.9771,2.039,-8.934,-1.978
1772933778957.0273,-0.053,-0.0444,-0.9767,1.96,-9.012,-2.021
1772933778957.0273,-0.0539,-0.0408,-0.9785,2.056,-8.977,-1.864
1772933778957.0273,-0.0523,-0.0428,-0.9751,1.873,-8.75,-1.96
1772933778957.0273,-0.0538,-0.041,-0.9768,2.091,-8.584,-1.768
1772933778972.1067,-0.0545,-0.0413,-0.9781,2.292,-8.575,-1.663
1772933778972.1067,-0.054,-0.0433,-0.9812,2.144,-8.627,-1.881
1772933778972.1067,-0.0531,-0.0407,-0.9805,2.38,-8.741,-1.899
1772933778972.1067,-0.0533,-0.044,-0.9792,2.45,-8.557,-1.82
1772933778972.1067,-0.0535,-0.04,-0.9784,2.397,-8.671,-2.021
1772933778972.1067,-0.0531,-0.0412,-0.9822,2.389,-8.601,-1.899
1772933778972.1067,-0.053,-0.0407,-0.9849,2.511,-8.715,-2.021
1772933778972.1067,-0.0511,-0.0425,-0.991,2.319,-8.75,-2.047
1772933778972.1067,-0.0516,-0.0423,-0.9865,2.424,-9.214,-2.039
1772933778972.1067,-0.0504,-0.0417,-0.9836,2.555,-8.995,-2.047
1772933778972.1067,-0.052,-0.0397,-0.9873,2.809,-9.117,-2.091
1772933778972.1067,-0.052,-0.0406,-0.9945,2.572,-9.109,-2.004
1772933778972.1067,-0.0534,-0.0403,-0.9982,2.817,-8.943,-1.732
1772933778988.1428,-0.0529,-0.0402,-0.9964,3.176,-9.284,-1.881
1772933778988.1428,-0.0548,-0.0402,-0.9959,3.229,-9.774,-1.864
1772933778988.1428,-0.057,-0.0379,-0.9961,3.553,-9.783,-1.689
1772933778988.1428,-0.0541,-0.0376,-1.0003,3.57,-9.651,-1.461
1772933778988.1428,-0.0509,-0.0337,-1.01,3.85,-10.062,-1.636
1772933778988.1428,-0.0474,-0.0348,-1.0087,4.121,-10.43,-1.741
1772933778988.1428,-0.0509,-0.032,-1.0069,4.69,-10.911,-1.811
1772933778988.1428,-0.0488,-0.0342,-1.0053,4.681,-11.182,-1.837
1772933778988.1428,-0.0487,-0.0346,-1.0073,4.952,-11.611,-1.934
1772933778988.1428,-0.0497,-0.0335,-1.0063,5.259,-11.918,-2.179
1772933778988.1428,-0.0479,-0.0345,-1.0071,5.206,-11.891,-2.161
1772933778988.1428,-0.0512,-0.037,-1.0034,5.495,-12.154,-1.986
1772933778988.1428,-0.0526,-0.0346,-0.9991,5.81,-12.801,-2.013
1772933779003.9897,-0.0514,-0.0382,-1.0017,5.862,-12.81,-1.96
1772933779003.9897,-0.0511,-0.04,-0.9993,5.775,-12.679,-1.934
1772933779003.9897,-0.052,-0.0406,-0.9961,5.862,-13.072,-2.065
1772933779003.9897,-0.0515,-0.0393,-0.9924,5.731,-12.889,-2.056
1772933779003.9897,-0.0498,-0.0415,-0.9914,5.679,-12.924,-2.144
1772933779003.9897,-0.0494,-0.0452,-0.9891,5.539,-13.16,-2.013
1772933779003.9897,-0.0519,-0.0457,-0.985,5.128,-13.055,-1.925
1772933779003.9897,-0.0536,-0.0492,-0.9801,4.786,-12.976,-2.144
1772933779003.9897,-0.0528,-0.0504,-0.9765,4.541,-13.064,-2.266
1772933779003.9897,-0.0528,-0.0533,-0.9778,4.287,-12.652,-2.047
1772933779003.9897,-0.0528,-0.054,-0.9748,3.85,-12.521,-2.109
1772933779003.9897,-0.0544,-0.0554,-0.9725,2.922,-12.224,-2.17
1772933779003.9897,-0.0537,-0.0592,-0.9658,2.441,-12.11,-2.074
1772933779019.1133,-0.0562,-0.0626,-0.9636,1.873,-11.865,-1.601
1772933779019.1133,-0.0537,-0.0614,-0.9611,1.768,-11.296,-1.566
1772933779019.1133,-0.0555,-0.0645,-0.9576,1.173,-11.113,-1.47
1772933779019.1133,-0.0535,-0.0625,-0.9585,0.542,-10.684,-1.374
1772933779019.1133,-0.0548,-0.0615,-0.9564,0.35,-10.369,-1.286
1772933779019.1133,-0.0551,-0.0639,-0.955,-0.009,-9.905,-1.347
1772933779019.1133,-0.0555,-0.0604,-0.9568,-0.429,-9.52,-1.032
1772933779019.1133,-0.0533,-0.0581,-0.9567,-0.735,-9.319,-0.989
1772933779019.1133,-0.053,-0.0553,-0.9564,-0.892,-8.855,-0.726
1772933779019.1133,-0.0532,-0.052,-0.9608,-0.998,-8.383,-0.726
1772933779019.1133,-0.0515,-0.0511,-0.966,-0.866,-8.12,-0.455
1772933779019.1133,-0.0513,-0.0481,-0.9654,-0.796,-7.91,-0.472
1772933779034.6785,-0.0514,-0.0426,-0.9707,-0.823,-7.875,-0.621
1772933779034.6785,-0.0529,-0.0386,-0.9735,-0.297,-7.849,-0.761
1772933779034.6785,-0.0499,-0.0345,-0.9814,-0.009,-7.831,-0.665
1772933779034.6785,-0.0475,-0.0312,-0.988,0.236,-7.997,-0.744
1772933779034.6785,-0.0477,-0.0253,-0.9897,0.814,-8.339,-0.761
1772933779034.6785,-0.0469,-0.0218,-0.9964,1.103,-8.514,-1.129
1772933779034.6785,-0.0445,-0.0229,-0.9978,1.601,-8.864,-1.426
1772933779034.6785,-0.0459,-0.0216,-1.0002,2.091,-9.214,-1.452
1772933779034.6785,-0.0451,-0.0228,-0.9997,2.756,-9.669,-1.68
1772933779034.6785,-0.0457,-0.0196,-1.0008,3.098,-10.229,-1.68
1772933779034.6785,-0.0462,-0.0222,-0.9992,3.342,-10.395,-2.065
1772933779034.6785,-0.0501,-0.0224,-0.9943,3.894,-10.85,-2.24
1772933779034.6785,-0.0495,-0.0276,-0.9928,4.287,-11.165,-2.572
1772933779049.7073,-0.0503,-0.0253,-0.9884,4.524,-11.366,-2.362
1772933779049.7073,-0.0522,-0.0274,-0.9895,4.681,-11.742,-2.415
1772933779049.7073,-0.051,-0.0303,-0.9912,4.585,-11.891,-2.52
1772933779049.7073,-0.0555,-0.0308,-0.9809,4.541,-12.119,-2.284
1772933779049.7073,-0.0552,-0.0287,-0.9762,4.69,-12.434,-2.476
1772933779049.7073,-0.0533,-0.0331,-0.9737,4.734,-12.066,-2.599
1772933779049.7073,-0.0558,-0.0369,-0.9701,4.786,-12.276,-2.511
1772933779049.7073,-0.0581,-0.0364,-0.9714,4.576,-12.162,-2.616
1772933779049.7073,-0.0606,-0.0415,-0.9639,4.585,-12.005,-2.415
1772933779049.7073,-0.0636,-0.0378,-0.96,4.296,-11.576,-2.196
1772933779049.7073,-0.0626,-0.0418,-0.9605,4.209,-11.156,-2.45
1772933779049.7073,-0.065,-0.0442,-0.9555,3.973,-10.894,-2.161
1772933779064.781,-0.0647,-0.0462,-0.9563,4.016,-11.165,-1.706
1772933779064.781,-0.0667,-0.0475,-0.9523,3.5,-10.588,-1.54
1772933779064.781,-0.0695,-0.047,-0.9553,3.316,-10.036,-1.663
1772933779064.781,-0.0667,-0.0487,-0.9557,3.334,-9.756,-1.4
1772933779064.781,-0.0669,-0.0476,-0.9544,3.001,-9.047,-1.312
1772933779064.781,-0.0695,-0.0481,-0.9546,2.905,-8.724,-1.155
1772933779064.781,-0.0683,-0.0482,-0.9521,2.616,-8.803,-1.111
1772933779064.781,-0.0679,-0.0495,-0.9539,2.433,-8.496,-0.796
1772933779064.781,-0.0696,-0.0501,-0.9543,2.223,-7.901,-0.761
1772933779064.781,-0.0693,-0.0473,-0.9588,2.047,-7.429,-0.595
1772933779064.781,-0.0701,-0.0493,-0.9653,2.021,-7.271,-0.63
1772933779064.781,-0.0701,-0.049,-0.9689,1.627,-7.0,-0.525
1772933779080.3308,-0.0693,-0.0497,-0.9698,1.654,-6.781,-0.481
1772933779080.3308,-0.0694,-0.0482,-0.9753,1.347,-6.615,-0.376
1772933779080.3308,-0.0667,-0.0457,-0.9792,1.225,-6.659,-0.315
1772933779080.3308,-0.0659,-0.0451,-0.9908,1.015,-6.388,-0.228
1772933779080.3308,-0.0681,-0.0425,-0.9963,0.971,-6.484,-0.035
1772933779080.3308,-0.0669,-0.0429,-1.0017,0.98,-6.729,-0.114
1772933779080.3308,-0.0644,-0.0422,-1.0064,1.05,-6.991,-0.166
1772933779080.3308,-0.0647,-0.0422,-1.0136,1.085,-7.219,-0.175
1772933779080.3308,-0.0636,-0.0395,-1.022,1.12,-7.831,-0.367
1772933779080.3308,-0.0653,-0.0395,-1.0264,1.19,-8.172,-0.682
1772933779080.3308,-0.0637,-0.0387,-1.0301,1.251,-8.383,-0.586
1772933779080.3308,-0.0667,-0.0392,-1.0313,1.347,-8.689,-0.595
1772933779080.3308,-0.0636,-0.0391,-1.0344,1.129,-9.152,-0.613
1772933779095.8535,-0.068,-0.0408,-1.0353,1.216,-9.459,-0.919
1772933779095.8535,-0.0681,-0.0425,-1.0323,1.164,-9.669,-1.024
1772933779095.8535,-0.0712,-0.0423,-1.0266,0.84,-9.957,-1.137
1772933779095.8535,-0.0731,-0.0425,-1.0176,0.805,-10.36,-1.164
1772933779095.8535,-0.0725,-0.0428,-1.0167,0.639,-10.255,-1.304
1772933779095.8535,-0.0748,-0.046,-1.0065,0.333,-9.599,-1.26
1772933779095.8535,-0.0764,-0.0441,-0.9991,-0.149,-9.31,-1.295
1772933779095.8535,-0.077,-0.0462,-0.9936,-0.604,-8.706,-1.33
1772933779095.8535,-0.08,-0.047,-0.9881,-0.989,-8.129,-1.461
1772933779095.8535,-0.0829,-0.0476,-0.9792,-1.627,-7.516,-1.68
1772933779095.8535,-0.0869,-0.047,-0.9771,-2.459,-6.519,-1.89
1772933779095.8535,-0.0849,-0.0511,-0.9734,-3.167,-5.617,-1.899
1772933779111.0176,-0.0856,-0.049,-0.965,-4.043,-4.393,-1.986
1772933779111.0176,-0.0873,-0.0509,-0.9654,-4.716,-3.465,-2.091
1772933779111.0176,-0.0889,-0.0508,-0.9647,-5.32,-2.109,-2.214
1772933779111.0176,-0.0895,-0.0501,-0.9681,-6.151,-1.146,-2.03
1772933779111.0176,-0.0897,-0.0514,-0.9678,-6.851,-0.228,-2.17
1772933779111.0176,-0.0872,-0.0484,-0.9714,-7.534,1.234,-2.205
1772933779111.0176,-0.0836,-0.0484,-0.9722,-7.98,2.118,-2.284
1772933779111.0176,-0.0847,-0.0472,-0.9786,-8.418,3.185,-2.502
1772933779111.0176,-0.0811,-0.0451,-0.9836,-8.654,4.13,-2.485
1772933779111.0176,-0.0811,-0.044,-0.9897,-8.75,4.874,-2.704
1772933779111.0176,-0.0793,-0.0449,-0.9931,-8.689,5.469,-2.572
1772933779111.0176,-0.0745,-0.0444,-0.9953,-8.601,5.793,-2.704
1772933779127.0674,-0.0734,-0.0409,-0.9964,-8.409,6.064,-2.651
1772933779127.0674,-0.0716,-0.0409,-1.0006,-8.085,6.335,-2.756
1772933779127.0674,-0.0667,-0.0411,-1.0024,-8.006,6.151,-2.651
1772933779127.0674,-0.065,-0.0411,-1.0049,-7.473,6.195,-2.8
1772933779127.0674,-0.0611,-0.0428,-1.0047,-6.947,5.556,-2.695
1772933779127.0674,-0.0575,-0.0425,-1.0023,-6.606,5.171,-2.424
1772933779127.0674,-0.0529,-0.0426,-1.0,-6.221,4.235,-2.31
1772933779127.0674,-0.0512,-0.0453,-1.0004,-5.451,3.579,-2.389
1772933779127.0674,-0.0479,-0.0442,-0.9955,-5.18,2.555,-2.31
1772933779127.0674,-0.0454,-0.0467,-0.9912,-4.751,1.461,-1.96
1772933779127.0674,-0.044,-0.0441,-0.9872,-4.34,0.796,-1.802
1772933779127.0674,-0.0376,-0.0459,-0.9834,-3.587,-0.446,-1.566
1772933779127.0674,-0.0386,-0.0456,-0.979,-3.106,-1.829,-1.47
1772933779143.097,-0.0356,-0.0451,-0.9722,-2.634,-2.905,-1.269
1772933779143.097,-0.0339,-0.0437,-0.9694,-1.934,-4.253,-1.094
1772933779143.097,-0.0353,-0.0444,-0.9612,-1.426,-5.338,-0.91
1772933779143.097,-0.0328,-0.0428,-0.957,-0.726,-6.475,-0.718
1772933779143.097,-0.0332,-0.0428,-0.9523,-0.009,-7.473,-0.507
1772933779143.097,-0.0324,-0.0411,-0.9503,0.595,-8.592,-0.376
1772933779143.097,-0.0328,-0.0393,-0.9464,1.488,-9.572,-0.42
1772933779143.097,-0.032,-0.0374,-0.942,2.013,-10.693,-0.35
1772933779143.097,-0.0343,-0.0369,-0.9421,2.678,-11.279,-0.254
1772933779143.097,-0.0356,-0.0355,-0.9374,3.404,-11.769,-0.175
1772933779143.097,-0.0345,-0.0339,-0.9348,4.218,-12.898,-0.21
1772933779143.097,-0.0367,-0.035,-0.9319,4.874,-13.107,-0.14
1772933779143.097,-0.0387,-0.0322,-0.9337,5.749,-13.387,0.018
1772933779158.9153,-0.0396,-0.0315,-0.9328,6.562,-13.974,0.009
1772933779158.9153,-0.0397,-0.0299,-0.9337,7.376,-14.411,-0.219
1772933779158.9153,-0.0401,-0.0297,-0.9357,8.068,-14.648,-0.385
1772933779158.9153,-0.0417,-0.0287,-0.9366,8.636,-14.945,-0.656
1772933779158.9153,-0.0415,-0.027,-0.9387,9.196,-15.172,-0.586
1772933779158.9153,-0.0442,-0.0257,-0.9414,10.027,-15.251,-0.621
1772933779158.9153,-0.0461,-0.0263,-0.9436,10.596,-15.033,-0.823
1772933779158.9153,-0.0478,-0.0285,-0.9478,11.086,-15.295,-1.164
1772933779158.9153,-0.0489,-0.0281,-0.9501,11.489,-15.024,-0.971
1772933779158.9153,-0.0506,-0.0274,-0.9533,11.734,-14.971,-0.84
1772933779158.9153,-0.0517,-0.0294,-0.9544,12.162,-15.015,-1.33
1772933779158.9153,-0.0536,-0.0279,-0.9557,12.294,-14.884,-1.216
1772933779158.9153,-0.0534,-0.0298,-0.9622,12.46,-14.341,-1.505
1772933779174.941,-0.0558,-0.0316,-0.9634,12.355,-14.289,-1.566
1772933779174.941,-0.059,-0.0322,-0.9618,12.285,-13.921,-1.776
1772933779174.941,-0.06,-0.0325,-0.9648,11.891,-13.799,-1.75
1772933779174.941,-0.0613,-0.0357,-0.9666,11.498,-13.344,-1.715
1772933779174.941,-0.063,-0.0361,-0.967,10.92,-12.836,-1.899
1772933779174.941,-0.0636,-0.0375,-0.969,10.596,-12.408,-2.013
1772933779174.941,-0.0638,-0.041,-0.972,9.914,-12.023,-1.925
1772933779174.941,-0.0681,-0.0409,-0.9719,9.004,-11.699,-1.969
1772933779174.941,-0.0702,-0.0418,-0.9733,8.26,-10.797,-2.1
1772933779174.941,-0.0702,-0.0429,-0.9722,7.718,-10.701,-2.083
1772933779174.941,-0.0705,-0.0414,-0.9738,6.886,-10.141,-2.013
1772933779174.941,-0.0718,-0.0415,-0.9724,5.862,-9.424,-2.056
1772933779174.941,-0.0736,-0.0421,-0.9728,4.935,-9.039,-2.004
1772933779190.4656,-0.0721,-0.0424,-0.9755,4.112,-8.26,-1.811
1772933779190.4656,-0.0745,-0.0427,-0.972,3.299,-7.814,-1.811
1772933779190.4656,-0.0733,-0.0423,-0.9715,2.511,-7.228,-1.837
1772933779190.4656,-0.0758,-0.044,-0.9735,1.452,-6.869,-1.907
1772933779190.4656,-0.0744,-0.0425,-0.9728,0.919,-5.95,-1.671
1772933779190.4656,-0.0731,-0.0423,-0.9743,0.175,-5.775,-1.829
1772933779190.4656,-0.0751,-0.0389,-0.9769,-0.324,-5.46,-1.873
1772933779190.4656,-0.0759,-0.0388,-0.9744,-0.796,-5.04,-1.663
1772933779190.4656,-0.0738,-0.0382,-0.9762,-1.356,-4.366,-1.68
1772933779190.4656,-0.0726,-0.0376,-0.9746,-1.776,-4.27,-1.549
1772933779190.4656,-0.0752,-0.035,-0.9788,-2.161,-3.71,-1.566
1772933779190.4656,-0.071,-0.0346,-0.9799,-2.564,-3.544,-1.593
1772933779190.4656,-0.0705,-0.0342,-0.9811,-2.721,-3.43,-1.776
1772933779205.8713,-0.0695,-0.0338,-0.9789,-2.678,-3.062,-1.698
1772933779205.8713,-0.0669,-0.0328,-0.9769,-2.756,-3.036,-1.724
1772933779205.8713,-0.0672,-0.0321,-0.9836,-2.467,-2.922,-1.549
1772933779205.8713,-0.0658,-0.0301,-0.9786,-2.538,-2.809,-1.496
1772933779205.8713,-0.0645,-0.0293,-0.9809,-2.292,-2.774,-1.584
1772933779205.8713,-0.0647,-0.0289,-0.9798,-2.17,-3.054,-1.584
1772933779205.8713,-0.0596,-0.0276,-0.981,-1.759,-2.712,-1.522
1772933779205.8713,-0.0612,-0.0301,-0.981,-1.584,-3.054,-1.627
1772933779205.8713,-0.0604,-0.0264,-0.9837,-1.347,-3.237,-1.575
1772933779205.8713,-0.0579,-0.0278,-0.983,-0.744,-3.649,-1.347
1772933779205.8713,-0.0584,-0.0239,-0.9805,-0.166,-3.596,-1.417
1772933779205.8713,-0.0561,-0.0242,-0.9834,0.14,-3.841,-1.619
1772933779222.2056,-0.0541,-0.024,-0.9831,0.779,-3.868,-1.522
1772933779222.2056,-0.0542,-0.0245,-0.9803,1.146,-4.515,-1.558
1772933779222.2056,-0.0516,-0.0235,-0.979,1.251,-4.856,-1.242
1772933779222.2056,-0.0492,-0.0272,-0.9778,1.829,-5.372,-1.461
1772933779222.2056,-0.0509,-0.0264,-0.9802,2.38,-5.407,-1.321
1772933779222.2056,-0.0506,-0.0267,-0.9805,2.756,-5.723,-1.269
1772933779222.2056,-0.0483,-0.0257,-0.983,3.211,-5.933,-1.181
1772933779222.2056,-0.047,-0.0267,-0.9797,3.36,-6.134,-1.304
1772933779222.2056,-0.0499,-0.0288,-0.9816,3.666,-6.606,-1.269
1772933779222.2056,-0.0463,-0.0265,-0.9794,4.016,-6.93,-1.365
1772933779222.2056,-0.0472,-0.0299,-0.9805,4.357,-7.122,-1.356
1772933779222.2056,-0.0466,-0.0308,-0.9782,4.707,-7.394,-1.181
1772933779222.2056,-0.046,-0.0306,-0.9778,4.795,-7.726,-1.173
1772933779237.8833,-0.0472,-0.0308,-0.9777,5.058,-7.893,-1.181
1772933779237.8833,-0.0463,-0.0302,-0.9756,5.442,-7.91,-1.251
1772933779237.8833,-0.0476,-0.0309,-0.9751,5.897,-8.19,-1.26
1772933779237.8833,-0.048,-0.0325,-0.9762,5.95,-8.435,-1.155
1772933779237.8833,-0.05,-0.0301,-0.9744,5.819,-8.724,-1.312
1772933779237.8833,-0.0506,-0.0319,-0.9761,5.705,-8.557,-1.094
1772933779237.8833,-0.0497,-0.0332,-0.9777,5.88,-8.68,-1.164
1772933779237.8833,-0.0523,-0.0357,-0.9751,6.003,-8.68,-1.137
1772933779237.8833,-0.0529,-0.035,-0.9744,6.116,-8.706,-1.164
1772933779237.8833,-0.0523,-0.035,-0.9725,6.256,-8.759,-1.19
1772933779237.8833,-0.0521,-0.0359,-0.9711,6.414,-8.82,-1.347
1772933779237.8833,-0.0522,-0.0355,-0.9736,6.037,-8.759,-1.26
1772933779237.8833,-0.0566,-0.0361,-0.9723,5.88,-8.697,-1.26
1772933779253.711,-0.0564,-0.0382,-0.9715,6.151,-8.479,-1.295
1772933779253.711,-0.0572,-0.0347,-0.9719,6.02,-8.339,-1.242
1772933779253.711,-0.059,-0.0377,-0.9728,5.827,-8.365,-1.164
1772933779253.711,-0.0593,-0.04,-0.9715,5.819,-8.479,-1.269
1772933779253.711,-0.0622,-0.0393,-0.9714,5.933,-8.374,-1.286
1772933779253.711,-0.0615,-0.0376,-0.9717,5.827,-7.971,-1.444
1772933779253.711,-0.0606,-0.0393,-0.9707,5.652,-8.234,-1.514
1772933779253.711,-0.0628,-0.0392,-0.9734,5.556,-8.033,-1.488
1772933779253.711,-0.0642,-0.0412,-0.9717,5.53,-7.586,-1.417
1772933779253.711,-0.0639,-0.0417,-0.9739,5.451,-7.35,-1.435
1772933779253.711,-0.0661,-0.0436,-0.9751,5.18,-7.192,-1.549
1772933779253.711,-0.0676,-0.0417,-0.9748,5.303,-7.114,-1.566
1772933779253.711,-0.0666,-0.0426,-0.9727,5.031,-7.088,-1.575
1772933779269.144,-0.0691,-0.0406,-0.9767,4.979,-7.201,-1.61
1772933779269.144,-0.0678,-0.0434,-0.9751,4.9,-6.878,-1.698
1772933779269.144,-0.0684,-0.042,-0.9745,4.673,-6.781,-1.566
1772933779269.144,-0.07,-0.0428,-0.976,4.76,-6.606,-1.619
1772933779269.144,-0.0711,-0.0428,-0.9756,4.515,-6.536,-1.566
1772933779269.144,-0.0697,-0.0418,-0.9751,4.55,-6.641,-1.584
1772933779269.144,-0.0691,-0.0425,-0.9765,4.349,-6.554,-1.479
1772933779269.144,-0.072,-0.0421,-0.978,4.156,-6.536,-1.575
1772933779269.144,-0.0694,-0.0427,-0.9773,4.06,-6.344,-1.514
1772933779269.144,-0.0694,-0.0436,-0.981,4.226,-6.44,-1.654
1772933779269.144,-0.0682,-0.0407,-0.9792,3.929,-6.58,-1.68
1772933779269.144,-0.0709,-0.0428,-0.9815,3.929,-6.589,-1.496
1772933779269.144,-0.0701,-0.0425,-0.9815,3.736,-6.239,-1.68
1772933779284.7068,-0.0702,-0.0436,-0.9805,3.692,-6.606,-1.785
1772933779284.7068,-0.0715,-0.0431,-0.9789,3.745,-6.484,-1.724
1772933779284.7068,-0.0731,-0.044,-0.9798,3.535,-6.641,-1.444
1772933779284.7068,-0.0719,-0.0423,-0.9849,3.561,-6.527,-1.461
1772933779284.7068,-0.0705,-0.0404,-0.9834,3.439,-6.851,-1.531
1772933779284.7068,-0.0698,-0.0409,-0.9833,3.194,-7.096,-1.584
1772933779284.7068,-0.0705,-0.0409,-0.9828,3.395,-7.263,-1.522
1772933779284.7068,-0.0702,-0.0376,-0.9837,3.36,-7.219,-1.488
1772933779284.7068,-0.0715,-0.0425,-0.9845,3.308,-7.306,-1.488
1772933779284.7068,-0.0693,-0.0404,-0.983,3.211,-7.63,-1.452
1772933779284.7068,-0.0686,-0.041,-0.9844,3.167,-7.455,-1.435
1772933779284.7068,-0.0678,-0.0395,-0.9833,3.465,-7.63,-1.759
1772933779299.7322,-0.0687,-0.0398,-0.9845,3.237,-7.612,-1.741
1772933779299.7322,-0.0669,-0.0387,-0.986,3.01,-7.884,-1.732
1772933779299.7322,-0.0692,-0.0392,-0.9845,3.185,-8.199,-1.549
1772933779299.7322,-0.0644,-0.0401,-0.9848,3.255,-8.321,-1.785
1772933779299.7322,-0.0658,-0.039,-0.9827,3.167,-8.304,-1.732
1772933779299.7322,-0.0649,-0.0398,-0.985,3.22,-8.164,-1.68
1772933779299.7322,-0.0673,-0.0401,-0.984,3.185,-8.557,-1.671
1772933779299.7322,-0.0645,-0.0415,-0.983,3.203,-8.627,-1.514
1772933779299.7322,-0.0656,-0.0392,-0.9812,3.229,-8.435,-1.811
1772933779299.7322,-0.0642,-0.0388,-0.9811,3.369,-8.549,-1.654
1772933779299.7322,-0.0654,-0.0376,-0.9792,3.413,-8.418,-1.715
1772933779299.7322,-0.0661,-0.0384,-0.9792,3.369,-8.47,-1.663
1772933779315.266,-0.0612,-0.0391,-0.9789,3.342,-8.732,-1.68
1772933779315.266,-0.0637,-0.0384,-0.9782,3.465,-8.715,-1.593
1772933779315.266,-0.0638,-0.0376,-0.9764,3.587,-8.829,-1.724
1772933779315.266,-0.0645,-0.0379,-0.9789,3.474,-8.768,-1.522
1772933779315.266,-0.0656,-0.0404,-0.9756,3.605,-8.89,-1.759
1772933779315.266,-0.0643,-0.0373,-0.977,3.544,-8.96,-1.689
1772933779315.266,-0.0614,-0.0386,-0.9748,3.456,-8.943,-1.811
1772933779315.266,-0.0656,-0.0392,-0.9764,3.631,-8.636,-1.951
1772933779315.266,-0.0639,-0.0383,-0.9734,3.5,-8.557,-2.039
1772933779315.266,-0.0656,-0.0375,-0.9709,3.474,-8.759,-1.829
1772933779315.266,-0.0657,-0.0387,-0.9745,3.605,-8.453,-1.907
1772933779315.266,-0.0686,-0.0407,-0.9695,3.605,-8.199,-1.837
1772933779315.266,-0.0664,-0.0371,-0.9715,3.535,-7.936,-1.768
1772933779330.4941,-0.0692,-0.0409,-0.9707,3.544,-7.989,-1.811
1772933779330.4941,-0.0674,-0.0391,-0.9729,3.5,-7.822,-1.942
1772933779330.4941,-0.0688,-0.0401,-0.9723,3.447,-7.805,-1.75
1772933779330.4941,-0.072,-0.0406,-0.9705,3.308,-7.56,-1.82
1772933779330.4941,-0.0698,-0.0395,-0.9712,3.237,-7.341,-2.021
1772933779330.4941,-0.0718,-0.0387,-0.9712,3.185,-7.394,-1.96
1772933779330.4941,-0.0716,-0.0397,-0.9705,3.167,-7.315,-2.109
1772933779330.4941,-0.0694,-0.0359,-0.9712,3.15,-7.114,-1.846
1772933779330.4941,-0.072,-0.0398,-0.9725,3.106,-7.079,-1.759
1772933779330.4941,-0.0702,-0.0403,-0.9757,3.098,-7.122,-1.907
1772933779330.4941,-0.0732,-0.04,-0.9736,3.159,-7.035,-2.047
1772933779330.4941,-0.0718,-0.0395,-0.9747,3.167,-7.088,-1.601
1772933779346.0425,-0.0741,-0.0409,-0.9782,3.246,-6.781,-1.575
1772933779346.0425,-0.0706,-0.04,-0.9794,3.159,-6.772,-1.61
1772933779346.0425,-0.0707,-0.04,-0.978,3.185,-6.912,-1.654
1772933779346.0425,-0.0705,-0.0399,-0.9789,3.176,-7.28,-1.619
1772933779346.0425,-0.0711,-0.0395,-0.9812,3.43,-7.656,-1.558
1772933779346.0425,-0.072,-0.0398,-0.9833,3.203,-7.683,-1.522
1772933779346.0425,-0.0702,-0.0397,-0.9815,3.132,-7.341,-1.584
1772933779346.0425,-0.0692,-0.0384,-0.9842,3.535,-7.508,-1.496
1772933779346.0425,-0.073,-0.0409,-0.9826,3.526,-7.438,-1.636
1772933779346.0425,-0.072,-0.0395,-0.9849,3.518,-7.761,-1.417
1772933779346.0425,-0.0684,-0.0383,-0.9846,3.719,-7.857,-1.417
1772933779346.0425,-0.069,-0.0377,-0.9848,3.465,-7.936,-1.619
1772933779346.0425,-0.0704,-0.0382,-0.9853,3.623,-8.207,-1.768
1772933779361.6167,-0.0708,-0.0384,-0.9851,3.561,-8.321,-1.601
1772933779361.6167,-0.0705,-0.0382,-0.9854,3.745,-8.164,-1.479
1772933779361.6167,-0.0717,-0.0392,-0.9853,3.876,-8.584,-1.575
1772933779361.6167,-0.0706,-0.0391,-0.9848,3.797,-8.715,-1.479
1772933779361.6167,-0.0703,-0.0381,-0.9851,3.833,-8.881,-1.496
1772933779361.6167,-0.073,-0.0412,-0.9817,3.78,-8.943,-1.295
1772933779361.6167,-0.073,-0.037,-0.9834,3.806,-8.943,-1.566
1772933779361.6167,-0.0709,-0.0374,-0.9839,3.833,-8.759,-1.295
1772933779361.6167,-0.0712,-0.037,-0.9856,3.99,-8.925,-1.242
1772933779361.6167,-0.073,-0.0396,-0.9825,3.754,-8.829,-1.601
1772933779361.6167,-0.0708,-0.0375,-0.9823,4.051,-8.855,-1.488
1772933779361.6167,-0.0709,-0.0392,-0.9818,4.209,-8.759,-1.409
1772933779361.6167,-0.0739,-0.0425,-0.9816,4.156,-8.584,-1.173
1772933779377.6433,-0.0712,-0.04,-0.9825,4.06,-8.881,-1.234
1772933779377.6433,-0.073,-0.0423,-0.9816,4.314,-8.488,-1.19
1772933779377.6433,-0.0711,-0.0418,-0.982,4.401,-8.277,-1.304
1772933779377.6433,-0.0719,-0.0406,-0.9813,4.139,-8.479,-1.321
1772933779377.6433,-0.0717,-0.0432,-0.9801,4.41,-8.321,-1.435
1772933779377.6433,-0.074,-0.0418,-0.9831,4.428,-8.225,-1.286
1772933779377.6433,-0.0721,-0.043,-0.9811,4.331,-8.172,-1.417
1772933779377.6433,-0.0742,-0.0431,-0.9822,4.393,-8.015,-1.496
1772933779377.6433,-0.0722,-0.0433,-0.9855,4.454,-8.137,-1.269
1772933779377.6433,-0.0721,-0.0437,-0.9832,4.401,-8.006,-1.339
1772933779377.6433,-0.0718,-0.044,-0.9837,4.296,-7.989,-1.269
1772933779377.6433,-0.0712,-0.0443,-0.9845,4.629,-7.822,-1.032
1772933779377.6433,-0.0695,-0.0453,-0.9845,4.55,-8.015,-1.242
1772933779393.1765,-0.0723,-0.047,-0.9845,4.497,-7.997,-1.164
1772933779393.1765,-0.0717,-0.0457,-0.9869,4.664,-7.831,-1.312
1772933779393.1765,-0.0714,-0.0471,-0.9892,4.55,-7.639,-1.19
1772933779393.1765,-0.0687,-0.0476,-0.9851,4.515,-7.761,-1.173
1772933779393.1765,-0.0687,-0.0475,-0.9883,4.489,-7.621,-1.015
1772933779393.1765,-0.0698,-0.0466,-0.9865,4.497,-7.866,-1.216
1772933779393.1765,-0.0692,-0.0467,-0.9872,4.471,-7.901,-0.936
1772933779393.1765,-0.0691,-0.047,-0.9884,4.463,-7.805,-1.111
1772933779393.1765,-0.0679,-0.0451,-0.9903,4.463,-7.691,-1.076
1772933779393.1765,-0.0672,-0.0478,-0.9869,4.349,-7.971,-0.892
1772933779393.1765,-0.0667,-0.0482,-0.9903,4.463,-8.146,-1.146
1772933779393.1765,-0.067,-0.0447,-0.9887,4.384,-7.91,-1.129
1772933779409.2256,-0.0674,-0.0446,-0.9885,4.436,-7.936,-0.936
1772933779409.2256,-0.0676,-0.0439,-0.9877,4.55,-8.102,-1.05
1772933779409.2256,-0.0672,-0.0443,-0.987,4.524,-8.26,-0.875
1772933779409.2256,-0.0676,-0.0442,-0.9887,4.506,-8.295,-1.094
1772933779409.2256,-0.0683,-0.0437,-0.9877,4.436,-8.339,-1.164
1772933779409.2256,-0.0669,-0.0427,-0.9864,4.384,-8.776,-1.024
1772933779409.2256,-0.0683,-0.0441,-0.9894,4.506,-9.109,-1.216
1772933779409.2256,-0.067,-0.045,-0.987,4.253,-9.144,-1.032
1772933779409.2256,-0.0655,-0.045,-0.9881,4.436,-9.091,-0.77
1772933779409.2256,-0.0671,-0.042,-0.9874,4.357,-9.275,-1.164
1772933779409.2256,-0.0656,-0.0423,-0.9859,4.393,-9.511,-1.041
1772933779409.2256,-0.0649,-0.0425,-0.9891,4.244,-9.275,-1.173
1772933779409.2256,-0.0673,-0.0413,-0.9878,3.981,-9.398,-1.094
1772933779424.7483,-0.0676,-0.0425,-0.9891,3.868,-9.546,-1.137
1772933779424.7483,-0.0662,-0.0406,-0.9866,3.763,-9.581,-1.129
1772933779424.7483,-0.0654,-0.0415,-0.9846,3.876,-9.739,-1.173
1772933779424.7483,-0.0647,-0.041,-0.9842,3.973,-9.818,-1.312
1772933779424.7483,-0.0642,-0.0417,-0.9831,3.806,-9.835,-1.242
1772933779424.7483,-0.0662,-0.0408,-0.9863,3.701,-10.106,-1.216
1772933779424.7483,-0.0654,-0.0399,-0.9838,3.596,-10.133,-1.137
1772933779424.7483,-0.0657,-0.0406,-0.9848,3.736,-10.211,-1.234
1772933779424.7483,-0.0673,-0.0431,-0.9829,3.736,-10.15,-1.312
1772933779424.7483,-0.0653,-0.0403,-0.9823,3.518,-10.124,-1.312
1772933779424.7483,-0.068,-0.0423,-0.9832,3.413,-10.377,-1.129
1772933779424.7483,-0.0678,-0.0414,-0.9833,3.377,-10.605,-1.173
1772933779424.7483,-0.0681,-0.0424,-0.9791,3.246,-10.307,-1.19
1772933779439.763,-0.0669,-0.0424,-0.9816,3.098,-10.395,-1.391
1772933779439.763,-0.068,-0.0423,-0.9832,3.211,-10.412,-1.19
1772933779439.763,-0.07,-0.041,-0.978,3.106,-10.299,-1.067
1772933779439.763,-0.0686,-0.0415,-0.9797,3.036,-10.299,-1.12
1772933779439.763,-0.0669,-0.0405,-0.9769,3.098,-10.316,-1.103
1772933779439.763,-0.0683,-0.0392,-0.9766,3.071,-10.255,-1.225
1772933779439.763,-0.0684,-0.0396,-0.9759,2.922,-9.992,-1.164
1772933779439.763,-0.0691,-0.0403,-0.9759,2.914,-10.211,-1.356
1772933779439.763,-0.0686,-0.0395,-0.9768,2.669,-10.342,-1.155
1772933779439.763,-0.0687,-0.0406,-0.9771,2.599,-10.106,-1.067
1772933779439.763,-0.068,-0.0393,-0.9753,2.599,-9.634,-1.164
1772933779439.763,-0.0692,-0.04,-0.978,2.66,-9.713,-1.137
1772933779455.2952,-0.0692,-0.0394,-0.9748,2.433,-9.678,-1.155
1772933779455.2952,-0.0679,-0.0372,-0.9733,2.721,-9.555,-0.971
1772933779455.2952,-0.0693,-0.0364,-0.9748,2.502,-9.686,-1.374
1772933779455.2952,-0.0711,-0.0355,-0.975,2.494,-9.835,-1.251
1772933779455.2952,-0.0699,-0.037,-0.976,2.607,-9.8,-1.4
1772933779455.2952,-0.0691,-0.0356,-0.9747,2.739,-9.756,-1.417
1772933779455.2952,-0.0711,-0.0344,-0.9744,2.485,-9.59,-1.347
1772933779455.2952,-0.0689,-0.0339,-0.9717,2.625,-9.345,-1.461
1772933779455.2952,-0.0689,-0.0332,-0.9773,2.669,-9.284,-1.269
1772933779455.2952,-0.0684,-0.0347,-0.9729,2.678,-9.266,-1.47
1772933779455.2952,-0.0702,-0.0343,-0.9726,2.8,-9.354,-1.488
1772933779455.2952,-0.0709,-0.0343,-0.973,2.966,-9.205,-1.514
1772933779471.3176,-0.0712,-0.0327,-0.9744,2.739,-9.152,-1.417
1772933779471.3176,-0.0715,-0.0354,-0.9709,2.695,-9.144,-1.575
1772933779471.3176,-0.0698,-0.0322,-0.9742,2.844,-9.152,-1.479
1772933779471.3176,-0.0712,-0.0343,-0.9713,2.765,-8.977,-1.444
1772933779471.3176,-0.0703,-0.0336,-0.9703,2.748,-8.601,-1.444
1772933779471.3176,-0.0702,-0.0351,-0.9693,2.634,-8.619,-1.365
1772933779471.3176,-0.0723,-0.0345,-0.9683,2.73,-8.706,-1.164
1772933779471.3176,-0.0733,-0.0359,-0.9676,2.564,-8.4,-1.321
1772933779471.3176,-0.073,-0.0359,-0.9694,2.686,-8.383,-1.234
1772933779471.3176,-0.0733,-0.0367,-0.9652,2.494,-8.277,-1.321
1772933779471.3176,-0.0731,-0.0353,-0.9658,2.345,-8.015,-1.234
1772933779471.3176,-0.076,-0.0332,-0.9678,2.45,-8.015,-1.251
1772933779471.3176,-0.0762,-0.0359,-0.9642,2.38,-7.945,-1.26
1772933779487.3542,-0.0771,-0.0367,-0.9656,2.599,-7.928,-1.426
1772933779487.3542,-0.0753,-0.0358,-0.9664,2.292,-7.901,-1.619
1772933779487.3542,-0.0755,-0.0378,-0.9654,2.223,-7.394,-1.339
1772933779487.3542,-0.0748,-0.0376,-0.9681,2.144,-7.28,-1.208
1772933779487.3542,-0.0757,-0.0361,-0.967,2.17,-7.508,-1.225
1772933779487.3542,-0.0744,-0.0383,-0.9677,2.135,-7.429,-1.365
1772933779487.3542,-0.0744,-0.036,-0.9677,2.109,-7.306,-1.304
1772933779487.3542,-0.075,-0.0349,-0.9665,2.152,-7.088,-1.26
1772933779487.3542,-0.0769,-0.0373,-0.9675,2.266,-7.289,-1.032
1772933779487.3542,-0.0776,-0.0345,-0.9708,2.179,-7.228,-1.251
1772933779487.3542,-0.0748,-0.0348,-0.9719,2.564,-7.035,-1.365
1772933779487.3542,-0.0775,-0.0354,-0.9737,2.59,-6.991,-1.295
1772933779487.3542,-0.0768,-0.0364,-0.9755,2.406,-6.956,-1.242
1772933779503.377,-0.0769,-0.0359,-0.9767,2.345,-7.149,-1.164
1772933779503.377,-0.0752,-0.036,-0.975,2.678,-7.254,-1.208
1772933779503.377,-0.0759,-0.0357,-0.9795,3.062,-7.516,-1.374
1772933779503.377,-0.0748,-0.0346,-0.9806,2.922,-7.525,-1.347
1772933779503.377,-0.0745,-0.0354,-0.9804,3.054,-7.429,-1.33
1772933779503.377,-0.0736,-0.0346,-0.9822,3.264,-7.621,-1.435
1772933779503.377,-0.0741,-0.0343,-0.9825,3.535,-7.499,-1.321
1772933779503.377,-0.0754,-0.0341,-0.9831,3.736,-7.744,-1.724
1772933779503.377,-0.0723,-0.0348,-0.9828,3.658,-8.059,-1.452
1772933779503.377,-0.0722,-0.0359,-0.9845,3.518,-7.884,-1.321
1772933779503.377,-0.0733,-0.0344,-0.9881,3.85,-8.137,-1.619
1772933779503.377,-0.0727,-0.0354,-0.985,3.859,-8.321,-1.435
1772933779503.377,-0.0723,-0.0352,-0.9847,3.859,-8.391,-1.54
1772933779518.9463,-0.0711,-0.0348,-0.9877,4.025,-8.479,-1.549
1772933779518.9463,-0.0693,-0.0347,-0.9853,4.016,-8.768,-1.514
1772933779518.9463,-0.0713,-0.0357,-0.9843,4.183,-8.864,-1.627
1772933779518.9463,-0.0708,-0.037,-0.9857,4.244,-9.03,-1.627
1772933779518.9463,-0.0712,-0.0367,-0.9845,4.27,-8.995,-1.741
1772933779518.9463,-0.0744,-0.0375,-0.9868,4.428,-8.986,-1.636
1772933779518.9463,-0.0711,-0.0378,-0.9839,4.471,-9.039,-1.811
1772933779518.9463,-0.0731,-0.0373,-0.9837,4.541,-8.785,-1.837
1772933779518.9463,-0.0715,-0.0372,-0.9843,4.349,-9.109,-1.671
1772933779518.9463,-0.0731,-0.0387,-0.9827,4.287,-9.293,-1.724
1772933779518.9463,-0.0735,-0.0397,-0.9831,4.13,-9.126,-1.531
1772933779518.9463,-0.0728,-0.0389,-0.9842,4.112,-9.266,-1.759
1772933779518.9463,-0.0752,-0.039,-0.9817,4.104,-8.969,-1.873
1772933779535.014,-0.0738,-0.0405,-0.9786,4.008,-8.82,-2.091
1772933779535.014,-0.0752,-0.0426,-0.9809,3.745,-8.855,-1.802
1772933779535.014,-0.075,-0.0427,-0.98,3.736,-9.205,-1.689
1772933779535.014,-0.0746,-0.0414,-0.9786,3.666,-9.117,-1.89
1772933779535.014,-0.0748,-0.042,-0.9788,3.736,-8.654,-2.047
1772933779535.014,-0.076,-0.0443,-0.9806,3.491,-8.662,-1.829
1772933779535.014,-0.076,-0.0448,-0.9812,3.159,-8.426,-1.663
1772933779535.014,-0.0762,-0.0462,-0.9771,3.246,-8.54,-1.776
1772933779535.014,-0.0777,-0.0475,-0.9755,3.045,-8.304,-1.811
1772933779535.014,-0.0772,-0.0447,-0.9776,2.844,-8.312,-1.671
1772933779535.014,-0.0749,-0.0454,-0.9799,2.931,-8.426,-1.698
1772933779535.014,-0.0752,-0.0476,-0.9753,2.625,-8.033,-1.61
1772933779535.014,-0.076,-0.0476,-0.9739,2.485,-8.068,-1.531
1772933779550.0806,-0.0777,-0.047,-0.9769,2.336,-8.041,-1.68
1772933779550.0806,-0.0786,-0.0473,-0.9758,2.188,-7.787,-1.488
1772933779550.0806,-0.0786,-0.0464,-0.9761,2.091,-7.822,-1.689
1772933779550.0806,-0.0759,-0.0468,-0.9783,1.934,-7.822,-1.566
1772933779550.0806,-0.0786,-0.0494,-0.9784,1.916,-7.849,-1.549
1772933779550.0806,-0.0786,-0.0475,-0.9792,1.995,-7.516,-1.426
1772933779550.0806,-0.0773,-0.0467,-0.9812,2.152,-7.621,-1.619
1772933779550.0806,-0.0767,-0.0453,-0.9772,2.065,-7.726,-1.759
1772933779550.0806,-0.0789,-0.0479,-0.9764,2.144,-7.429,-1.566
1772933779550.0806,-0.0758,-0.0478,-0.9762,2.047,-7.534,-1.505
1772933779550.0806,-0.0745,-0.0475,-0.978,2.056,-7.621,-1.47
1772933779550.0806,-0.0789,-0.0479,-0.9777,1.785,-7.332,-1.549
1772933779565.8877,-0.076,-0.0468,-0.978,1.768,-7.525,-1.566
1772933779565.8877,-0.0761,-0.0492,-0.9756,1.794,-7.219,-1.488
1772933779565.8877,-0.0775,-0.0473,-0.9773,1.584,-7.429,-1.33
1772933779565.8877,-0.0795,-0.0468,-0.9768,1.575,-7.289,-1.601
1772933779565.8877,-0.0762,-0.0469,-0.9777,1.907,-7.525,-1.689
1772933779565.8877,-0.0764,-0.0448,-0.9758,1.715,-7.577,-1.452
1772933779565.8877,-0.0767,-0.0449,-0.979,1.724,-7.595,-1.383
1772933779565.8877,-0.0773,-0.0459,-0.9792,1.82,-7.595,-1.558
1772933779565.8877,-0.0767,-0.0465,-0.9792,1.776,-7.726,-1.619
1772933779565.8877,-0.0777,-0.0451,-0.9799,1.776,-7.665,-1.531
1772933779565.8877,-0.0784,-0.0452,-0.9787,1.724,-7.56,-1.365
1772933779565.8877,-0.0771,-0.0443,-0.9786,1.689,-7.49,-1.531
1772933779565.8877,-0.0789,-0.0429,-0.9786,1.671,-7.683,-1.522
1772933779581.6384,-0.0813,-0.0432,-0.981,1.759,-7.595,-1.54
1772933779581.6384,-0.0794,-0.0446,-0.9755,1.776,-7.543,-1.75
1772933779581.6384,-0.0777,-0.0431,-0.9772,1.768,-7.49,-1.426
1772933779581.6384,-0.0811,-0.0443,-0.9784,1.566,-7.508,-1.654
1772933779581.6384,-0.0798,-0.0433,-0.9786,1.75,-7.822,-1.724
1772933779581.6384,-0.08,-0.0418,-0.9756,1.829,-7.674,-1.522
1772933779581.6384,-0.0797,-0.0412,-0.9736,1.636,-7.56,-1.741
1772933779581.6384,-0.0818,-0.0414,-0.9753,1.689,-7.726,-1.68
1772933779581.6384,-0.0813,-0.0415,-0.9745,1.732,-7.928,-1.566
1772933779581.6384,-0.0802,-0.0417,-0.9778,1.575,-7.936,-1.654
1772933779581.6384,-0.0822,-0.0403,-0.9749,1.75,-7.91,-1.663
1772933779581.6384,-0.0817,-0.0394,-0.9747,1.829,-7.691,-1.829
1772933779581.6384,-0.0814,-0.0398,-0.9745,1.54,-7.647,-1.768
1772933779597.3555,-0.0852,-0.0417,-0.976,1.531,-7.604,-1.601
1772933779597.3555,-0.0825,-0.0395,-0.9728,1.593,-7.394,-1.505
1772933779597.3555,-0.0842,-0.0393,-0.9725,1.663,-7.28,-1.61
1772933779597.3555,-0.0847,-0.0409,-0.9756,1.514,-7.324,-1.654
1772933779597.3555,-0.0842,-0.0384,-0.9748,1.671,-7.341,-1.558
1772933779597.3555,-0.0851,-0.0371,-0.9726,1.663,-7.446,-1.706
1772933779597.3555,-0.0846,-0.037,-0.9745,1.593,-7.28,-1.846
1772933779597.3555,-0.0857,-0.0387,-0.9762,1.671,-7.254,-1.671
1772933779597.3555,-0.0856,-0.0395,-0.974,1.663,-7.114,-1.689
1772933779597.3555,-0.0851,-0.0404,-0.9742,1.61,-7.411,-1.426
1772933779597.3555,-0.0819,-0.0386,-0.975,1.636,-7.184,-1.391
1772933779597.3555,-0.0848,-0.0378,-0.9763,1.601,-7.306,-1.54
1772933779597.3555,-0.0837,-0.0371,-0.9776,1.654,-7.35,-1.566
1772933779612.981,-0.0839,-0.0383,-0.9767,1.671,-7.105,-1.444
1772933779612.981,-0.0834,-0.037,-0.9764,1.732,-7.298,-1.383
1772933779612.981,-0.0822,-0.0362,-0.9787,1.732,-7.263,-1.47
1772933779612.981,-0.0837,-0.0367,-0.9772,1.645,-7.394,-1.383
1772933779612.981,-0.0833,-0.037,-0.9767,1.986,-7.306,-1.26
1772933779612.981,-0.0849,-0.0373,-0.977,1.785,-7.411,-1.391
1772933779612.981,-0.0851,-0.0361,-0.979,1.636,-7.289,-1.426
1772933779612.981,-0.0849,-0.0369,-0.979,1.951,-7.079,-1.47
1772933779612.981,-0.0846,-0.0376,-0.9784,1.829,-7.508,-1.365
1772933779612.981,-0.0839,-0.0371,-0.9809,1.969,-7.429,-1.347
1772933779612.981,-0.0809,-0.0374,-0.9797,2.126,-7.473,-1.347
1772933779612.981,-0.0825,-0.037,-0.9792,2.109,-7.455,-1.076
1772933779628.8535,-0.0826,-0.0371,-0.9776,2.319,-7.367,-1.199
1772933779628.8535,-0.0833,-0.0373,-0.9805,2.459,-7.551,-1.391
1772933779628.8535,-0.0841,-0.0387,-0.978,2.24,-7.236,-1.593
1772933779628.8535,-0.082,-0.037,-0.9781,2.424,-7.569,-1.409
1772933779628.8535,-0.081,-0.0379,-0.9793,2.336,-7.551,-1.347
1772933779628.8535,-0.0834,-0.0366,-0.9799,2.599,-7.315,-1.295
1772933779628.8535,-0.0817,-0.0388,-0.9784,2.31,-7.7,-1.452
1772933779628.8535,-0.0827,-0.0371,-0.9772,2.45,-7.508,-1.33
1772933779628.8535,-0.0806,-0.0393,-0.9795,2.695,-7.551,-1.295
1772933779628.8535,-0.0814,-0.037,-0.9789,2.564,-7.77,-1.234
1772933779628.8535,-0.0803,-0.0395,-0.9772,2.45,-7.91,-1.356
1772933779628.8535,-0.0785,-0.0384,-0.98,2.616,-7.928,-1.33
1772933779628.8535,-0.0811,-0.0389,-0.9775,2.765,-7.499,-1.426
1772933779644.8274,-0.0805,-0.0385,-0.9744,2.739,-7.411,-1.4
1772933779644.8274,-0.082,-0.0383,-0.9772,2.739,-7.516,-1.242
1772933779644.8274,-0.0798,-0.04,-0.9793,2.853,-7.394,-1.549
1772933779644.8274,-0.082,-0.0392,-0.9783,2.712,-7.534,-1.426
1772933779644.8274,-0.0802,-0.0389,-0.9781,2.826,-7.683,-1.251
1772933779644.8274,-0.0803,-0.0379,-0.9778,2.59,-7.219,-1.365
1772933779644.8274,-0.0803,-0.0379,-0.9794,2.809,-7.201,-1.339
1772933779644.8274,-0.0786,-0.0392,-0.9778,2.826,-7.35,-1.295
1772933779644.8274,-0.0795,-0.0398,-0.9764,2.791,-7.761,-1.558
1772933779644.8274,-0.0805,-0.0397,-0.9802,2.634,-7.271,-1.33
1772933779644.8274,-0.0805,-0.0378,-0.9794,2.774,-7.376,-1.488
1772933779644.8274,-0.0802,-0.0369,-0.9794,2.896,-7.438,-1.269
1772933779644.8274,-0.08,-0.0376,-0.9783,2.721,-7.534,-1.4
1772933779659.9907,-0.0798,-0.0382,-0.9783,2.774,-7.647,-1.286
1772933779659.9907,-0.08,-0.0379,-0.9793,2.66,-7.543,-1.444
1772933779659.9907,-0.0797,-0.0375,-0.979,2.651,-7.612,-1.514
1772933779659.9907,-0.0801,-0.0403,-0.9799,2.765,-7.604,-1.286
1772933779659.9907,-0.0816,-0.0403,-0.9806,2.721,-7.534,-1.312
1772933779659.9907,-0.0797,-0.038,-0.9781,2.739,-7.324,-1.085
1772933779659.9907,-0.0816,-0.0401,-0.978,2.905,-7.394,-1.435
1772933779659.9907,-0.0809,-0.0375,-0.9754,2.712,-7.639,-1.383
1772933779659.9907,-0.0805,-0.0381,-0.9808,2.809,-7.901,-1.584
1772933779659.9907,-0.0804,-0.0375,-0.981,2.59,-7.674,-1.593
1772933779659.9907,-0.0808,-0.0393,-0.9774,2.686,-7.324,-1.47
1772933779659.9907,-0.08,-0.0386,-0.9794,2.572,-7.324,-1.452
1772933779675.1255,-0.0808,-0.0404,-0.9762,2.485,-7.28,-1.304
1772933779675.1255,-0.0811,-0.0375,-0.9783,2.424,-7.42,-1.531
1772933779675.1255,-0.0812,-0.0386,-0.9742,2.45,-7.341,-1.242
1772933779675.1255,-0.0818,-0.0388,-0.9772,2.397,-7.455,-1.278
1772933779675.1255,-0.0798,-0.0364,-0.9786,2.572,-7.42,-1.199
1772933779675.1255,-0.0814,-0.0378,-0.978,2.52,-7.621,-1.225
1772933779675.1255,-0.0803,-0.0373,-0.9773,2.783,-7.691,-1.208
1772933779675.1255,-0.0808,-0.0394,-0.9798,2.607,-7.787,-1.234
1772933779675.1255,-0.083,-0.0387,-0.9751,2.599,-7.263,-1.146
1772933779675.1255,-0.0803,-0.0404,-0.9767,2.538,-7.192,-1.234
1772933779675.1255,-0.0808,-0.0373,-0.9769,2.328,-7.49,-1.251
1772933779675.1255,-0.0805,-0.0364,-0.9761,2.275,-7.359,-1.417
1772933779675.1255,-0.0814,-0.0371,-0.9751,2.249,-7.157,-1.496
1772933779691.5867,-0.0838,-0.0384,-0.9759,2.415,-7.394,-1.435
1772933779691.5867,-0.0803,-0.0379,-0.9783,2.634,-7.14,-1.549
1772933779691.5867,-0.0796,-0.0386,-0.9775,2.476,-7.254,-1.522
1772933779691.5867,-0.0818,-0.0361,-0.9755,2.476,-7.228,-1.269
1772933779691.5867,-0.081,-0.0368,-0.9748,2.459,-7.219,-1.391
1772933779691.5867,-0.0823,-0.0378,-0.978,2.284,-7.28,-1.409
1772933779691.5867,-0.0825,-0.0381,-0.9792,2.336,-7.315,-1.496
1772933779691.5867,-0.0826,-0.0387,-0.9756,2.231,-7.175,-1.383
1772933779691.5867,-0.0798,-0.0371,-0.9734,2.275,-7.271,-1.234
1772933779691.5867,-0.0818,-0.0389,-0.9762,2.1,-7.385,-1.383
1772933779691.5867,-0.0823,-0.0395,-0.9767,2.152,-7.402,-1.365
1772933779691.5867,-0.0813,-0.0393,-0.9781,2.021,-7.604,-1.496
1772933779691.5867,-0.0815,-0.0401,-0.9719,2.196,-7.332,-1.356
1772933779707.2131,-0.0814,-0.0392,-0.9777,2.249,-7.621,-1.33
1772933779707.2131,-0.0819,-0.0393,-0.9762,2.144,-7.315,-1.269
1772933779707.2131,-0.0812,-0.0377,-0.9724,2.214,-7.263,-1.295
1772933779707.2131,-0.0797,-0.0379,-0.9745,2.301,-7.385,-1.26
1772933779707.2131,-0.0814,-0.0379,-0.9733,2.485,-7.149,-1.321
1772933779707.2131,-0.0843,-0.0404,-0.9759,2.336,-7.359,-1.146
1772933779707.2131,-0.0822,-0.0387,-0.9761,2.214,-7.367,-1.356
1772933779707.2131,-0.0831,-0.0381,-0.9754,2.389,-7.219,-1.452
1772933779707.2131,-0.0821,-0.0366,-0.9709,2.397,-7.271,-1.409
1772933779707.2131,-0.0807,-0.0379,-0.972,2.152,-7.14,-1.347
1772933779707.2131,-0.0806,-0.038,-0.973,2.31,-7.018,-1.103
1772933779707.2131,-0.083,-0.0386,-0.974,2.091,-7.271,-1.269
1772933779707.2131,-0.0817,-0.038,-0.9733,2.083,-7.341,-1.278
1772933779721.9504,-0.0802,-0.0371,-0.9748,2.083,-7.175,-1.304
1772933779721.9504,-0.0844,-0.0385,-0.9731,2.109,-7.175,-1.374
1772933779721.9504,-0.0827,-0.0355,-0.9734,2.433,-7.088,-1.251
1772933779721.9504,-0.0814,-0.0375,-0.9714,2.231,-7.289,-1.312
1772933779721.9504,-0.0825,-0.037,-0.974,2.231,-6.912,-1.304
1772933779721.9504,-0.0816,-0.0389,-0.9723,2.257,-6.86,-1.47
1772933779721.9504,-0.0817,-0.0375,-0.9715,2.161,-7.157,-1.444
1772933779721.9504,-0.0825,-0.0376,-0.9726,2.397,-6.947,-1.286
1772933779721.9504,-0.0838,-0.0381,-0.9725,2.31,-7.009,-1.242
1772933779721.9504,-0.0829,-0.0394,-0.9733,2.319,-6.808,-1.111
1772933779721.9504,-0.0824,-0.0368,-0.9717,2.24,-6.781,-1.129
1772933779721.9504,-0.0819,-0.0386,-0.9725,2.494,-6.694,-1.111
1772933779737.3877,-0.0831,-0.0376,-0.9737,2.362,-6.764,-1.225
1772933779737.3877,-0.0822,-0.0376,-0.972,2.31,-6.834,-1.321
1772933779737.3877,-0.0812,-0.0375,-0.9731,2.467,-6.974,-1.111
1772933779737.3877,-0.085,-0.0371,-0.9739,2.66,-6.895,-1.47
1772933779737.3877,-0.083,-0.037,-0.9758,2.476,-6.843,-1.531
1772933779737.3877,-0.0811,-0.0392,-0.9742,2.511,-6.808,-1.479
1772933779737.3877,-0.0841,-0.0378,-0.9758,2.599,-6.58,-1.488
1772933779737.3877,-0.0827,-0.0381,-0.9744,2.678,-6.44,-1.426
1772933779737.3877,-0.0821,-0.0379,-0.9755,2.712,-6.641,-1.496
1772933779737.3877,-0.0825,-0.0352,-0.9736,2.45,-6.554,-1.242
1772933779737.3877,-0.0808,-0.0367,-0.9732,2.424,-6.633,-1.173
1772933779737.3877,-0.0798,-0.0364,-0.9744,2.485,-6.93,-1.426
1772933779753.7903,-0.0828,-0.0364,-0.9761,2.354,-6.974,-1.278
1772933779753.7903,-0.0823,-0.0367,-0.9744,2.686,-6.947,-1.663
1772933779753.7903,-0.083,-0.0383,-0.9721,2.607,-6.965,-1.759
1772933779753.7903,-0.0814,-0.0375,-0.977,2.555,-6.825,-1.522
1772933779753.7903,-0.083,-0.0377,-0.9752,2.607,-6.843,-1.654
1772933779753.7903,-0.0829,-0.0377,-0.9776,2.651,-6.912,-1.593
1772933779753.7903,-0.0828,-0.0395,-0.9781,2.765,-7.009,-1.4
1772933779753.7903,-0.0831,-0.0373,-0.9769,2.625,-6.974,-1.304
1772933779753.7903,-0.0843,-0.037,-0.9775,2.59,-7.026,-1.4
1772933779753.7903,-0.0839,-0.0396,-0.9748,2.616,-6.851,-1.531
1772933779753.7903,-0.0848,-0.0405,-0.9731,2.643,-6.869,-1.636
1772933779753.7903,-0.0862,-0.039,-0.977,2.643,-6.912,-1.601
1772933779753.7903,-0.0837,-0.0387,-0.9744,2.686,-6.825,-1.435
1772933779768.9644,-0.0845,-0.0401,-0.9745,2.73,-6.904,-1.514
1772933779768.9644,-0.0841,-0.0355,-0.978,2.87,-6.772,-1.426
1772933779768.9644,-0.0859,-0.0371,-0.9784,2.905,-6.685,-1.461
1772933779768.9644,-0.0841,-0.0379,-0.9767,3.01,-6.808,-1.505
1772933779768.9644,-0.0822,-0.0381,-0.9764,2.835,-6.86,-1.584
1772933779768.9644,-0.0822,-0.0391,-0.9766,2.835,-7.061,-1.654
1772933779768.9644,-0.0816,-0.0399,-0.9776,2.459,-7.07,-1.54
1772933779768.9644,-0.085,-0.0404,-0.9781,2.844,-6.886,-1.304
1772933779768.9644,-0.0844,-0.0373,-0.9758,2.607,-6.711,-1.593
1772933779768.9644,-0.085,-0.0387,-0.9775,2.8,-6.878,-1.444
1772933779768.9644,-0.0839,-0.0386,-0.9772,2.695,-7.044,-1.383
1772933779768.9644,-0.0841,-0.0393,-0.9767,2.853,-6.93,-1.365
1772933779768.9644,-0.0847,-0.0379,-0.9767,2.922,-6.851,-1.347
1772933779784.5857,-0.0855,-0.0386,-0.9758,2.896,-6.869,-1.47
1772933779784.5857,-0.0823,-0.0405,-0.9778,2.695,-7.166,-1.575
1772933779784.5857,-0.0859,-0.039,-0.9765,2.721,-7.088,-1.409
1772933779784.5857,-0.0852,-0.0407,-0.9791,2.634,-6.816,-1.365
1772933779784.5857,-0.0828,-0.0409,-0.9778,2.748,-7.018,-1.321
1772933779784.5857,-0.0861,-0.0367,-0.9768,2.756,-7.14,-1.208
1772933779784.5857,-0.0833,-0.0405,-0.9767,2.826,-7.184,-1.278
1772933779784.5857,-0.0859,-0.0386,-0.9789,2.756,-7.149,-1.242
1772933779784.5857,-0.0841,-0.0405,-0.981,2.712,-7.0,-1.365
1772933779784.5857,-0.0846,-0.0379,-0.9812,2.765,-7.026,-1.356
1772933779784.5857,-0.0844,-0.039,-0.9806,2.686,-7.236,-1.339
1772933779784.5857,-0.0832,-0.0386,-0.9833,2.669,-7.332,-1.426
1772933779799.8538,-0.0828,-0.0391,-0.9822,2.564,-7.07,-1.225
1772933779799.8538,-0.084,-0.0393,-0.9812,2.546,-7.166,-1.26
1772933779799.8538,-0.0843,-0.0375,-0.9814,2.599,-7.28,-1.356
1772933779799.8538,-0.0831,-0.039,-0.9832,2.712,-7.385,-1.312
1772933779799.8538,-0.0828,-0.039,-0.9825,2.73,-7.298,-1.383
1772933779799.8538,-0.0844,-0.0371,-0.983,2.467,-7.28,-1.383
1772933779799.8538,-0.0837,-0.0379,-0.9809,2.704,-7.438,-1.365
1772933779799.8538,-0.0841,-0.0368,-0.9811,2.66,-7.612,-1.531
1772933779799.8538,-0.0844,-0.0342,-0.9809,2.712,-7.639,-1.522
1772933779799.8538,-0.0834,-0.0371,-0.9805,2.686,-7.691,-1.444
1772933779799.8538,-0.084,-0.0365,-0.9825,2.774,-7.665,-1.4
1772933779799.8538,-0.0833,-0.0354,-0.9803,2.774,-7.674,-1.417
1772933779799.8538,-0.0841,-0.0352,-0.9833,2.485,-7.551,-1.339
1772933779815.3972,-0.0838,-0.0371,-0.9783,2.502,-7.429,-1.304
1772933779815.3972,-0.0854,-0.0378,-0.9794,2.669,-7.683,-1.619
1772933779815.3972,-0.0867,-0.0367,-0.9776,2.362,-7.438,-1.488
1772933779815.3972,-0.0849,-0.0398,-0.976,2.555,-7.438,-1.365
1772933779815.3972,-0.0838,-0.0377,-0.9756,2.607,-7.455,-1.47
1772933779815.3972,-0.0834,-0.0379,-0.9761,2.581,-7.516,-1.339
1772933779815.3972,-0.0839,-0.0382,-0.9749,2.459,-7.385,-1.234
1772933779815.3972,-0.0848,-0.0388,-0.9745,2.362,-7.402,-1.549
1772933779815.3972,-0.0886,-0.0387,-0.9728,2.406,-7.271,-1.312
1772933779815.3972,-0.0864,-0.0363,-0.9725,2.17,-7.315,-1.601
1772933779815.3972,-0.0868,-0.0368,-0.9721,2.415,-7.376,-1.531
1772933779815.3972,-0.0883,-0.0381,-0.9697,2.301,-7.07,-1.522
1772933779830.9285,-0.085,-0.0377,-0.9711,2.188,-6.991,-1.575
1772933779830.9285,-0.0857,-0.0382,-0.9708,2.161,-6.895,-1.435
1772933779830.9285,-0.0875,-0.0381,-0.9708,2.109,-6.974,-1.426
1772933779830.9285,-0.0868,-0.0378,-0.9692,2.091,-6.808,-1.514
1772933779830.9285,-0.0862,-0.0381,-0.9698,2.275,-6.746,-1.584
1772933779830.9285,-0.0861,-0.0404,-0.9682,2.214,-6.79,-1.768
1772933779830.9285,-0.0856,-0.0361,-0.9691,2.039,-6.361,-1.452
1772933779830.9285,-0.0869,-0.0373,-0.9668,2.039,-6.37,-1.409
1772933779830.9285,-0.0885,-0.0381,-0.9683,1.969,-6.396,-1.199
1772933779830.9285,-0.0897,-0.0381,-0.9697,1.934,-6.011,-1.269
1772933779830.9285,-0.0903,-0.0371,-0.9694,1.986,-5.906,-1.479
1772933779830.9285,-0.0864,-0.0351,-0.9704,2.03,-5.915,-1.251
1772933779830.9285,-0.0877,-0.0345,-0.9703,2.021,-5.67,-1.461
1772933779846.5781,-0.0876,-0.0359,-0.9689,1.986,-5.661,-1.312
1772933779846.5781,-0.0881,-0.0367,-0.9692,1.873,-5.67,-1.601
1772933779846.5781,-0.0865,-0.0351,-0.9696,1.794,-5.775,-1.522
1772933779846.5781,-0.0889,-0.0367,-0.9706,2.1,-5.609,-1.514
1772933779846.5781,-0.0879,-0.0366,-0.9708,2.074,-5.513,-1.347
1772933779846.5781,-0.0905,-0.0354,-0.9739,1.899,-5.548,-1.444
1772933779846.5781,-0.0869,-0.0361,-0.9734,2.109,-5.644,-1.496
1772933779846.5781,-0.088,-0.035,-0.9722,1.925,-5.513,-1.339
1772933779846.5781,-0.0908,-0.0353,-0.9719,2.039,-5.635,-1.61
1772933779846.5781,-0.0852,-0.035,-0.9743,2.397,-5.495,-1.715
1772933779846.5781,-0.0862,-0.0342,-0.973,2.406,-5.416,-1.479
1772933779846.5781,-0.0886,-0.037,-0.9747,2.31,-5.434,-1.435
1772933779846.5781,-0.0859,-0.0357,-0.9748,2.38,-5.504,-1.514
1772933779861.9666,-0.0873,-0.0357,-0.9742,2.572,-5.451,-1.619
1772933779861.9666,-0.0898,-0.0358,-0.9762,2.433,-5.617,-1.522
1772933779861.9666,-0.0856,-0.0358,-0.975,2.397,-5.67,-1.759
1772933779861.9666,-0.0884,-0.0348,-0.9739,2.284,-5.766,-1.654
1772933779861.9666,-0.0873,-0.0347,-0.9758,2.371,-5.819,-1.566
1772933779861.9666,-0.0866,-0.0368,-0.9756,2.415,-5.696,-1.645
1772933779861.9666,-0.0868,-0.0328,-0.9775,2.345,-5.626,-1.531
1772933779861.9666,-0.0878,-0.0368,-0.9762,2.66,-5.775,-1.488
1772933779861.9666,-0.0897,-0.0357,-0.9761,2.502,-5.696,-1.383
1772933779861.9666,-0.0883,-0.0363,-0.9752,2.529,-5.897,-1.347
1772933779861.9666,-0.0861,-0.035,-0.9767,2.66,-5.793,-1.549
1772933779861.9666,-0.0864,-0.0366,-0.9769,2.433,-5.889,-1.383
1772933779878.1313,-0.0883,-0.0373,-0.9785,2.686,-5.758,-1.47
1772933779878.1313,-0.0881,-0.0353,-0.9797,2.774,-5.714,-1.706
1772933779878.1313,-0.0874,-0.0359,-0.9784,2.581,-5.976,-1.575
1772933779878.1313,-0.088,-0.0373,-0.9786,2.704,-5.941,-1.636
1772933779878.1313,-0.0873,-0.0368,-0.977,2.844,-6.072,-1.549
1772933779878.1313,-0.0867,-0.0351,-0.9784,2.826,-6.204,-1.654
1772933779878.1313,-0.0889,-0.0368,-0.98,2.678,-6.247,-1.435
1772933779878.1313,-0.0885,-0.0375,-0.9812,2.783,-6.116,-1.383
1772933779878.1313,-0.087,-0.035,-0.9827,2.756,-6.046,-1.522
1772933779878.1313,-0.0885,-0.0368,-0.9837,2.87,-6.213,-1.68
1772933779878.1313,-0.0897,-0.0355,-0.9851,2.984,-6.353,-1.496
1772933779878.1313,-0.0866,-0.0357,-0.9864,3.124,-6.466,-1.26
1772933779878.1313,-0.087,-0.036,-0.9904,3.316,-6.519,-1.566
1772933779893.3442,-0.0872,-0.0354,-0.99,3.43,-6.746,-1.391
1772933779893.3442,-0.0878,-0.0325,-0.9919,3.167,-6.326,-1.312
1772933779893.3442,-0.0877,-0.0348,-0.9959,3.684,-6.816,-1.496
1772933779893.3442,-0.0887,-0.0356,-0.9995,3.78,-7.184,-1.584
1772933779893.3442,-0.0878,-0.0336,-0.9967,3.902,-7.228,-1.496
1772933779893.3442,-0.0875,-0.0325,-1.0008,4.287,-7.595,-1.426
1772933779893.3442,-0.0855,-0.0336,-1.0016,4.314,-7.761,-1.575
1772933779893.3442,-0.085,-0.0326,-1.0063,4.532,-7.84,-1.47
1772933779893.3442,-0.088,-0.0334,-1.0063,4.83,-7.901,-1.881
1772933779893.3442,-0.087,-0.0296,-1.0053,5.197,-8.12,-1.837
1772933779893.3442,-0.0857,-0.0309,-1.0095,5.425,-8.531,-1.759
1772933779893.3442,-0.0855,-0.0323,-1.0091,5.582,-8.654,-1.837
1772933779893.3442,-0.0844,-0.0326,-1.0076,5.749,-9.223,-1.96
1772933779908.8665,-0.0841,-0.0326,-1.0091,5.766,-9.651,-1.986
1772933779908.8665,-0.0833,-0.034,-1.0049,6.011,-9.835,-1.925
1772933779908.8665,-0.0856,-0.0354,-1.0029,6.291,-9.914,-2.03
1772933779908.8665,-0.0862,-0.0366,-1.0028,6.116,-9.852,-1.89
1772933779908.8665,-0.0835,-0.0365,-0.9983,6.326,-10.106,-1.741
1772933779908.8665,-0.085,-0.0386,-0.9967,6.379,-10.185,-1.811
1772933779908.8665,-0.0834,-0.0387,-0.9921,6.186,-10.176,-1.811
1772933779908.8665,-0.0841,-0.043,-0.9886,6.046,-10.561,-1.811
1772933779908.8665,-0.0834,-0.0437,-0.9849,5.591,-10.351,-1.741
1772933779908.8665,-0.0833,-0.0453,-0.9825,5.346,-10.439,-1.811
1772933779908.8665,-0.0836,-0.0471,-0.977,4.97,-10.229,-1.776
1772933779908.8665,-0.084,-0.0497,-0.975,4.357,-10.062,-1.698
1772933779924.1665,-0.0825,-0.0505,-0.9709,3.658,-9.887,-1.479
1772933779924.1665,-0.0822,-0.0536,-0.967,3.159,-9.844,-1.522
1772933779924.1665,-0.0836,-0.0545,-0.9648,2.257,-9.581,-1.067
1772933779924.1665,-0.0827,-0.054,-0.9589,2.091,-9.319,-1.05
1772933779924.1665,-0.0833,-0.0548,-0.9578,1.452,-9.03,-0.954
1772933779924.1665,-0.0789,-0.0545,-0.954,0.901,-8.531,-0.936
1772933779924.1665,-0.0797,-0.0562,-0.9546,0.28,-8.269,-0.831
1772933779924.1665,-0.082,-0.0565,-0.9504,-0.464,-7.647,-0.779
1772933779924.1665,-0.0808,-0.0558,-0.9499,-0.805,-7.394,-0.507
1772933779924.1665,-0.0825,-0.0532,-0.9501,-1.164,-7.035,-0.735
1772933779924.1665,-0.0831,-0.0517,-0.9442,-1.785,-6.213,-0.481
1772933779924.1665,-0.0803,-0.0489,-0.948,-2.345,-6.116,-0.63
1772933779924.1665,-0.0797,-0.0474,-0.9486,-2.467,-6.055,-0.411
1772933779939.668,-0.0803,-0.0435,-0.9528,-2.634,-5.565,-0.359
1772933779939.668,-0.0797,-0.04,-0.952,-2.739,-4.979,-0.534
1772933779939.668,-0.0788,-0.0359,-0.9554,-2.739,-4.944,-0.438
1772933779939.668,-0.081,-0.0353,-0.9578,-2.546,-4.603,-0.709
1772933779939.668,-0.0788,-0.0276,-0.9626,-2.275,-4.506,-0.718
1772933779939.668,-0.0777,-0.0276,-0.9665,-1.75,-4.287,-0.7
1772933779939.668,-0.0769,-0.0224,-0.9701,-1.409,-4.497,-0.927
1772933779939.668,-0.0786,-0.0209,-0.9751,-0.709,-4.506,-1.032
1772933779939.668,-0.0767,-0.0202,-0.981,-0.149,-4.76,-1.208
1772933779939.668,-0.0767,-0.0157,-0.9864,0.438,-5.084,-1.452
1772933779939.668,-0.0768,-0.0153,-0.9889,1.094,-5.224,-1.566
1772933779939.668,-0.0772,-0.0135,-0.9928,1.627,-5.399,-1.671
1772933779954.7056,-0.0772,-0.0135,-0.9977,2.188,-5.897,-1.689
1772933779954.7056,-0.0786,-0.013,-0.9969,2.888,-6.388,-1.82
1772933779954.7056,-0.0795,-0.0164,-0.9992,3.36,-6.457,-2.205
1772933779954.7056,-0.0791,-0.0178,-0.9974,3.815,-7.0,-2.144
1772933779954.7056,-0.0812,-0.0184,-0.9945,4.401,-7.298,-2.345
1772933779954.7056,-0.0841,-0.0201,-0.9898,4.699,-7.822,-2.52
1772933779954.7056,-0.0824,-0.0215,-0.9844,4.874,-8.137,-2.607
1772933779954.7056,-0.0841,-0.024,-0.9816,4.944,-8.514,-2.45
1772933779954.7056,-0.0851,-0.0264,-0.9801,4.996,-8.82,-2.319
1772933779954.7056,-0.0852,-0.0285,-0.9744,4.865,-8.776,-2.389
1772933779954.7056,-0.0886,-0.032,-0.9694,4.777,-8.829,-2.354
1772933779954.7056,-0.0931,-0.0336,-0.9633,4.576,-8.68,-2.091
1772933779970.231,-0.0907,-0.0365,-0.962,4.655,-8.715,-1.855
1772933779970.231,-0.0918,-0.0364,-0.9567,4.585,-8.636,-1.978
1772933779970.231,-0.0928,-0.0414,-0.9511,4.322,-8.33,-1.724
1772933779970.231,-0.0949,-0.0414,-0.9486,4.174,-8.111,-1.627
1772933779970.231,-0.0943,-0.0418,-0.9428,3.745,-7.718,-1.321
1772933779970.231,-0.0969,-0.0437,-0.9399,3.658,-7.184,-1.391
1772933779970.231,-0.0998,-0.0455,-0.9402,3.439,-7.0,-1.251
1772933779970.231,-0.0989,-0.0468,-0.9389,3.342,-6.37,-1.12
1772933779970.231,-0.1013,-0.0475,-0.9365,2.922,-6.055,-0.84
1772933779970.231,-0.0972,-0.0492,-0.9361,2.888,-5.626,-0.621
1772933779970.231,-0.1,-0.049,-0.9338,2.774,-5.031,-0.586
1772933779970.231,-0.1007,-0.0499,-0.9372,2.695,-4.541,-0.333
1772933779970.231,-0.1023,-0.0484,-0.9343,2.275,-4.147,-0.228
1772933779985.7026,-0.1055,-0.0487,-0.9392,2.179,-3.938,-0.324
1772933779985.7026,-0.1044,-0.0492,-0.9379,1.925,-3.246,0.0
1772933779985.7026,-0.103,-0.0462,-0.9439,1.706,-2.896,-0.044
1772933779985.7026,-0.1022,-0.0475,-0.9453,1.671,-2.643,0.009
1772933779985.7026,-0.101,-0.0476,-0.949,1.339,-2.231,0.061
1772933779985.7026,-0.1008,-0.0481,-0.9565,0.936,-1.986,0.122
1772933779985.7026,-0.103,-0.0464,-0.96,0.796,-1.584,-0.21
1772933779985.7026,-0.1012,-0.0439,-0.9683,0.367,-1.426,0.079
1772933779985.7026,-0.1021,-0.0433,-0.9755,0.228,-1.584,0.035
1772933779985.7026,-0.104,-0.04,-0.9811,-0.052,-1.321,0.254
1772933779985.7026,-0.1023,-0.039,-0.9859,-0.105,-1.312,0.385
1772933779985.7026,-0.1007,-0.0393,-0.9938,-0.228,-1.216,0.306
1772933780001.2761,-0.1013,-0.0378,-1.0017,-0.394,-1.225,0.376
1772933780001.2761,-0.1024,-0.0343,-1.0105,-0.403,-1.575,0.009
1772933780001.2761,-0.1021,-0.0343,-1.0157,-0.481,-1.794,-0.219
1772933780001.2761,-0.103,-0.0342,-1.0217,-0.49,-2.188,-0.28
1772933780001.2761,-0.1008,-0.0309,-1.0278,-0.621,-2.45,-0.228
1772933780001.2761,-0.1002,-0.03,-1.0325,-0.359,-2.441,-0.341
1772933780001.2761,-0.1008,-0.0303,-1.0352,-0.682,-2.835,-0.341
1772933780001.2761,-0.1022,-0.0312,-1.0354,-0.367,-3.5,-0.542
1772933780001.2761,-0.1023,-0.0292,-1.0308,-0.044,-3.868,-0.639
1772933780001.2761,-0.0996,-0.0294,-1.0303,-0.087,-3.789,-0.779
1772933780001.2761,-0.1002,-0.0312,-1.0266,-0.052,-4.174,-0.936
1772933780001.2761,-0.1016,-0.032,-1.018,0.14,-4.48,-1.181
1772933780001.2761,-0.1013,-0.0311,-1.011,0.149,-4.393,-1.444
1772933780017.0571,-0.1012,-0.0318,-1.003,0.122,-4.638,-1.155
1772933780017.0571,-0.1013,-0.0321,-0.9952,0.228,-4.314,-1.452
1772933780017.0571,-0.1003,-0.035,-0.9866,0.324,-3.99,-1.531
1772933780017.0571,-0.1013,-0.0351,-0.9797,0.114,-3.579,-1.689
1772933780017.0571,-0.1006,-0.0355,-0.9745,0.228,-3.264,-1.698
1772933780017.0571,-0.1014,-0.0368,-0.9722,-0.026,-2.625,-1.531
1772933780017.0571,-0.0992,-0.0387,-0.9633,-0.297,-2.1,-1.75
1772933780017.0571,-0.1019,-0.0361,-0.9651,-0.394,-1.461,-1.601
1772933780017.0571,-0.1,-0.0398,-0.9648,-0.726,-1.015,-1.951
1772933780017.0571,-0.1014,-0.0414,-0.969,-0.963,-0.193,-1.873
1772933780017.0571,-0.0966,-0.0415,-0.97,-1.295,0.297,-1.768
1772933780017.0571,-0.099,-0.0414,-0.974,-1.776,0.735,-1.802
1772933780017.0571,-0.0948,-0.0425,-0.9789,-2.179,1.295,-1.82
1772933780032.6638,-0.0935,-0.0404,-0.986,-2.362,1.601,-1.724
1772933780032.6638,-0.094,-0.0408,-0.9909,-2.555,1.566,-1.785
1772933780032.6638,-0.09,-0.0402,-0.9952,-2.774,1.942,-1.881
1772933780032.6638,-0.0894,-0.042,-0.9993,-3.255,2.406,-1.855
1772933780032.6638,-0.0861,-0.0396,-1.0024,-2.966,2.223,-1.82
1772933780032.6638,-0.0856,-0.0387,-1.0072,-3.124,2.013,-1.741
1772933780032.6638,-0.0871,-0.0374,-1.009,-3.045,1.951,-1.75
1772933780032.6638,-0.0843,-0.0401,-1.012,-2.905,1.374,-1.802
1772933780032.6638,-0.0797,-0.0398,-1.0142,-2.625,0.761,-1.881
1772933780032.6638,-0.0792,-0.0384,-1.0146,-2.397,0.07,-1.855
1772933780032.6638,-0.0776,-0.0383,-1.0164,-2.047,-0.604,-1.671
1772933780032.6638,-0.0764,-0.0391,-1.0108,-1.575,-1.4,-1.593
1772933780032.6638,-0.0759,-0.0384,-1.0077,-1.269,-2.135,-1.671
1772933780048.6487,-0.0741,-0.0392,-1.0049,-0.814,-2.975,-1.873
1772933780048.6487,-0.0735,-0.0388,-1.0005,-0.193,-3.684,-1.68
1772933780048.6487,-0.073,-0.0398,-0.9967,0.14,-4.707,-1.417
1772933780048.6487,-0.0702,-0.0384,-0.9939,0.481,-5.591,-1.488
1772933780048.6487,-0.0695,-0.0412,-0.9871,1.059,-6.423,-1.479
1772933780048.6487,-0.0678,-0.0412,-0.9812,1.531,-7.306,-1.426
1772933780048.6487,-0.0711,-0.0392,-0.9759,2.004,-8.549,-1.269
1772933780048.6487,-0.0692,-0.0386,-0.9717,2.266,-8.934,-1.295
1772933780048.6487,-0.0688,-0.0383,-0.9662,2.8,-9.625,-1.47
1772933780048.6487,-0.0708,-0.0395,-0.962,3.176,-10.159,-1.4
1772933780048.6487,-0.0697,-0.0398,-0.9578,3.482,-10.509,-1.242
1772933780048.6487,-0.0725,-0.0395,-0.9538,3.736,-11.296,-1.041
1772933780063.8577,-0.0726,-0.0377,-0.9525,3.614,-11.568,-1.129
1772933780063.8577,-0.0743,-0.0362,-0.9471,3.938,-11.874,-0.945
1772933780063.8577,-0.0734,-0.0351,-0.9446,4.279,-12.215,-0.936
1772933780063.8577,-0.0757,-0.0333,-0.943,4.393,-12.477,-1.199
1772933780063.8577,-0.0737,-0.0331,-0.941,4.786,-12.416,-0.989
1772933780063.8577,-0.0755,-0.0339,-0.9389,4.839,-12.661,-0.735
1772933780063.8577,-0.0751,-0.0331,-0.9408,5.197,-12.486,-1.015
1772933780063.8577,-0.0775,-0.0292,-0.941,5.075,-12.609,-1.085
1772933780063.8577,-0.0793,-0.0305,-0.9403,5.136,-12.206,-1.067
1772933780063.8577,-0.0797,-0.0285,-0.9424,5.189,-12.119,-1.12
1772933780063.8577,-0.0808,-0.0281,-0.9431,5.469,-11.961,-1.19
1772933780063.8577,-0.0838,-0.0262,-0.9424,5.442,-11.699,-1.067
1772933780063.8577,-0.0851,-0.0253,-0.944,5.478,-11.226,-1.137
1772933780079.5547,-0.0835,-0.0249,-0.948,5.53,-10.929,-1.155
1772933780079.5547,-0.0858,-0.0262,-0.9468,5.53,-10.456,-1.225
1772933780079.5547,-0.0864,-0.0234,-0.9494,5.565,-10.098,-1.383
1772933780079.5547,-0.0893,-0.0216,-0.9526,5.469,-9.818,-1.488
1772933780079.5547,-0.0883,-0.0232,-0.9537,5.372,-9.572,-1.374
1772933780079.5547,-0.0869,-0.0242,-0.9573,5.259,-9.161,-1.575
1772933780079.5547,-0.0897,-0.0213,-0.9603,5.136,-8.697,-1.776
1772933780079.5547,-0.0873,-0.0218,-0.9625,4.987,-8.251,-1.794
1772933780079.5547,-0.0875,-0.0228,-0.9657,4.769,-7.814,-1.978
1772933780079.5547,-0.09,-0.022,-0.9699,4.567,-7.525,-2.056
1772933780079.5547,-0.0894,-0.0261,-0.9704,4.428,-7.315,-2.021
1772933780079.5547,-0.0883,-0.0225,-0.9702,4.156,-7.009,-2.135
1772933780095.3555,-0.0896,-0.0251,-0.9729,3.99,-6.86,-2.249
1772933780095.3555,-0.0899,-0.0255,-0.9721,3.518,-6.676,-2.188
1772933780095.3555,-0.0902,-0.0247,-0.9762,3.272,-6.195,-1.96
1772933780095.3555,-0.0893,-0.0249,-0.9786,3.089,-6.247,-2.188
1772933780095.3555,-0.0902,-0.0271,-0.9795,2.826,-6.3,-2.406
1772933780095.3555,-0.0915,-0.0242,-0.976,2.31,-6.02,-2.004
1772933780095.3555,-0.0908,-0.0248,-0.9768,2.144,-5.591,-1.951
1772933780095.3555,-0.0899,-0.026,-0.9773,1.899,-5.451,-1.785
1772933780095.3555,-0.0899,-0.0293,-0.9792,1.671,-5.171,-1.698
1772933780095.3555,-0.09,-0.029,-0.9789,1.426,-5.162,-1.75
1772933780095.3555,-0.0892,-0.03,-0.9792,1.129,-4.812,-1.75
1772933780095.3555,-0.0899,-0.0282,-0.9771,0.682,-4.742,-1.907
1772933780095.3555,-0.0895,-0.0285,-0.9789,0.726,-4.515,-1.706
1772933780111.0059,-0.0889,-0.0278,-0.9778,0.744,-4.515,-1.627
1772933780111.0059,-0.0897,-0.0294,-0.9757,0.744,-4.393,-1.881
1772933780111.0059,-0.0885,-0.0268,-0.9769,0.507,-4.253,-1.881
1772933780111.0059,-0.0898,-0.0282,-0.9756,0.376,-4.191,-1.663
1772933780111.0059,-0.0879,-0.0274,-0.9755,0.166,-4.016,-1.846
1772933780111.0059,-0.0875,-0.0272,-0.9759,0.333,-3.999,-1.654
1772933780111.0059,-0.0883,-0.0278,-0.9766,0.411,-4.043,-1.663
1772933780111.0059,-0.0887,-0.0272,-0.9756,0.455,-3.973,-1.61
1772933780111.0059,-0.0894,-0.0289,-0.9756,0.604,-3.544,-1.409
1772933780111.0059,-0.0889,-0.029,-0.9731,0.481,-3.754,-1.278
1772933780111.0059,-0.0883,-0.0259,-0.9753,0.656,-3.474,-1.295
1772933780111.0059,-0.0873,-0.0268,-0.9761,0.595,-3.605,-1.225
1772933780111.0059,-0.0856,-0.0286,-0.9759,0.639,-3.596,-1.321
1772933780126.406,-0.0884,-0.0279,-0.9759,0.77,-3.623,-1.549
1772933780126.406,-0.0873,-0.0306,-0.9784,1.015,-3.692,-1.347
1772933780126.406,-0.0858,-0.0267,-0.9762,1.199,-3.902,-1.304
1772933780126.406,-0.0851,-0.0278,-0.9764,1.549,-3.806,-1.365
1772933780126.406,-0.0857,-0.0266,-0.9794,1.356,-4.077,-1.33
1772933780126.406,-0.0829,-0.0287,-0.9782,1.715,-4.305,-1.426
1772933780126.406,-0.0828,-0.027,-0.977,1.811,-4.428,-1.242
1772933780126.406,-0.0825,-0.0282,-0.982,1.995,-4.506,-1.461
1772933780126.406,-0.0819,-0.0279,-0.9789,2.196,-4.489,-1.286
1772933780126.406,-0.0818,-0.0305,-0.9801,2.354,-4.76,-1.435
1772933780126.406,-0.0809,-0.0284,-0.9825,2.564,-4.918,-1.417
1772933780126.406,-0.0796,-0.0259,-0.9814,2.844,-5.189,-1.488
1772933780142.0657,-0.0794,-0.0284,-0.9805,2.984,-5.399,-1.278
1772933780142.0657,-0.0801,-0.0256,-0.9823,3.062,-5.758,-1.085
1772933780142.0657,-0.0781,-0.0282,-0.9838,2.905,-5.994,-1.137
1772933780142.0657,-0.0769,-0.0267,-0.9829,3.229,-6.291,-1.137
1772933780142.0657,-0.0765,-0.027,-0.983,3.649,-6.213,-1.216
1772933780142.0657,-0.075,-0.0301,-0.9827,3.518,-6.3,-1.251
1772933780142.0657,-0.0761,-0.0296,-0.9816,3.535,-6.694,-1.269
1772933780142.0657,-0.0742,-0.0292,-0.9809,3.754,-6.764,-1.199
1772933780142.0657,-0.0754,-0.0289,-0.9792,3.771,-6.764,-1.295
1772933780142.0657,-0.0744,-0.0304,-0.9794,3.675,-6.912,-1.111
1772933780142.0657,-0.076,-0.0276,-0.9753,3.692,-7.298,-1.164
1772933780142.0657,-0.0762,-0.0296,-0.9775,3.859,-7.166,-1.216
1772933780142.0657,-0.0764,-0.0316,-0.9782,3.763,-7.289,-1.12
1772933780157.7683,-0.0759,-0.0288,-0.9771,3.946,-7.376,-1.365
1772933780157.7683,-0.0783,-0.0291,-0.9759,3.911,-7.271,-1.111
1772933780157.7683,-0.0791,-0.0297,-0.9744,3.911,-7.271,-1.094
1772933780157.7683,-0.0767,-0.0289,-0.9762,3.894,-7.359,-1.137
1772933780157.7683,-0.0778,-0.0286,-0.9726,3.911,-7.324,-1.173
1772933780157.7683,-0.0793,-0.0303,-0.9759,4.06,-7.289,-1.383
1772933780157.7683,-0.0804,-0.0299,-0.9697,3.885,-7.228,-1.208
1772933780157.7683,-0.0817,-0.0299,-0.9693,3.938,-7.157,-1.225
1772933780157.7683,-0.0815,-0.03,-0.9721,3.815,-7.044,-1.173
1772933780157.7683,-0.0842,-0.0306,-0.9701,3.833,-6.947,-1.137
1772933780157.7683,-0.0833,-0.0329,-0.9673,3.78,-6.825,-1.269
1772933780157.7683,-0.0855,-0.0323,-0.9691,3.57,-6.921,-1.4
1772933780157.7683,-0.0858,-0.0325,-0.9712,3.535,-6.633,-1.339
1772933780173.105,-0.0871,-0.0329,-0.9692,3.439,-6.256,-1.26
1772933780173.105,-0.0863,-0.0328,-0.9668,3.386,-6.134,-1.54
1772933780173.105,-0.0869,-0.0324,-0.9662,3.43,-6.081,-1.234
1772933780173.105,-0.0878,-0.0355,-0.9686,3.299,-5.766,-1.33
1772933780173.105,-0.0907,-0.0354,-0.9662,3.027,-5.626,-1.269
1772933780173.105,-0.0908,-0.0353,-0.9662,3.054,-5.617,-1.522
1772933780173.105,-0.092,-0.035,-0.9689,3.08,-5.442,-1.365
1772933780173.105,-0.0922,-0.0334,-0.97,3.132,-5.268,-1.216
1772933780173.105,-0.0919,-0.0351,-0.9692,2.87,-5.434,-1.216
1772933780173.105,-0.093,-0.0358,-0.9709,2.8,-5.11,-1.409
1772933780173.105,-0.0939,-0.0353,-0.9672,2.73,-4.935,-1.278
1772933780173.105,-0.0945,-0.0342,-0.969,2.625,-4.9,-1.312
1772933780188.18,-0.0962,-0.0379,-0.9725,2.695,-4.812,-1.208
1772933780188.18,-0.0954,-0.0363,-0.9714,2.712,-4.734,-1.208
1772933780188.18,-0.0961,-0.0389,-0.9706,2.494,-4.655,-1.234
1772933780188.18,-0.095,-0.0371,-0.9698,2.31,-4.707,-1.479
1772933780188.18,-0.097,-0.0351,-0.9723,2.231,-4.55,-1.409
1772933780188.18,-0.0966,-0.0365,-0.9735,2.24,-4.515,-1.409
1772933780188.18,-0.0986,-0.0335,-0.9719,2.091,-4.497,-1.417
1772933780188.18,-0.0955,-0.0343,-0.9761,2.188,-4.821,-1.461
1772933780188.18,-0.0946,-0.0351,-0.9748,2.257,-4.603,-1.304
1772933780188.18,-0.0966,-0.0343,-0.9775,2.328,-4.532,-1.199
1772933780188.18,-0.0968,-0.0321,-0.9792,2.433,-4.471,-1.321
1772933780188.18,-0.0969,-0.0342,-0.9775,2.362,-4.804,-1.522
1772933780203.6548,-0.0975,-0.0325,-0.9781,2.24,-4.926,-1.383
1772933780203.6548,-0.0949,-0.0308,-0.979,2.371,-4.742,-1.575
1772933780203.6548,-0.0961,-0.0323,-0.9796,2.599,-4.987,-1.68
1772933780203.6548,-0.0951,-0.0331,-0.981,2.643,-5.241,-1.479
1772933780203.6548,-0.0944,-0.0319,-0.9814,2.581,-5.18,-1.173
1772933780203.6548,-0.0942,-0.0338,-0.9849,2.853,-5.364,-1.575
1772933780203.6548,-0.0916,-0.0314,-0.9837,2.643,-5.661,-1.496
1772933780203.6548,-0.092,-0.0313,-0.9866,2.861,-5.758,-1.558
1772933780203.6548,-0.0909,-0.0327,-0.985,2.949,-5.609,-1.514
1772933780203.6548,-0.0881,-0.0326,-0.9889,2.817,-5.994,-1.426
1772933780203.6548,-0.0862,-0.0335,-0.9875,3.098,-6.3,-1.435
1772933780203.6548,-0.0881,-0.0325,-0.9847,3.027,-6.265,-1.304
1772933780203.6548,-0.087,-0.0333,-0.9838,3.098,-6.431,-1.365
1772933780220.0376,-0.0882,-0.0334,-0.9844,3.456,-6.711,-1.356
1772933780220.0376,-0.0859,-0.0331,-0.9856,3.561,-6.878,-1.321
1772933780220.0376,-0.0854,-0.0322,-0.9859,3.605,-6.86,-1.19
1772933780220.0376,-0.0843,-0.0319,-0.9819,3.92,-7.096,-1.286
1772933780220.0376,-0.0851,-0.0306,-0.9797,3.623,-7.096,-1.111
1772933780220.0376,-0.0849,-0.0313,-0.982,3.57,-7.009,-1.444
1772933780220.0376,-0.0856,-0.0325,-0.9789,3.71,-7.026,-1.461
1772933780220.0376,-0.0848,-0.0336,-0.9765,3.929,-7.131,-1.531
1772933780220.0376,-0.0868,-0.0332,-0.9766,3.876,-7.184,-1.365
1772933780220.0376,-0.0863,-0.0339,-0.9736,3.85,-7.254,-1.68
1772933780220.0376,-0.0866,-0.0325,-0.9738,3.754,-7.149,-1.575
1772933780220.0376,-0.0864,-0.0341,-0.9716,3.736,-6.982,-1.426
1772933780220.0376,-0.0877,-0.0315,-0.9689,3.771,-6.965,-1.452
1772933780235.6794,-0.0869,-0.0332,-0.9678,3.675,-6.939,-1.417
1772933780235.6794,-0.0897,-0.0346,-0.9684,3.623,-6.799,-1.426
1772933780235.6794,-0.091,-0.0371,-0.9697,3.334,-6.571,-1.12
1772933780235.6794,-0.09,-0.0348,-0.9658,3.308,-6.335,-1.251
1772933780235.6794,-0.0913,-0.035,-0.9659,3.211,-6.484,-1.286
1772933780235.6794,-0.0917,-0.0348,-0.9659,2.984,-6.23,-1.374
1772933780235.6794,-0.0922,-0.034,-0.9625,2.783,-6.116,-1.549
1772933780235.6794,-0.0949,-0.0352,-0.9609,2.529,-6.125,-1.601
1772933780235.6794,-0.0941,-0.0385,-0.9636,2.397,-6.055,-1.4
1772933780235.6794,-0.0942,-0.0372,-0.9638,2.249,-5.582,-1.479
1772933780235.6794,-0.0931,-0.0365,-0.962,2.459,-5.451,-1.496
1772933780235.6794,-0.0935,-0.0346,-0.9627,2.362,-5.329,-1.417
1772933780235.6794,-0.0978,-0.0338,-0.9637,1.899,-5.311,-1.4
1772933780251.0674,-0.0956,-0.0345,-0.9647,1.759,-4.996,-1.391
1772933780251.0674,-0.0956,-0.0353,-0.9658,1.461,-4.996,-1.383
1772933780251.0674,-0.0971,-0.034,-0.9677,1.759,-4.769,-1.295
1772933780251.0674,-0.0976,-0.0348,-0.9704,1.627,-4.751,-1.383
1772933780251.0674,-0.0978,-0.0307,-0.9714,1.645,-4.725,-1.347
1772933780251.0674,-0.095,-0.0313,-0.9727,1.356,-4.638,-1.488
1772933780251.0674,-0.0971,-0.0306,-0.9747,1.593,-4.812,-1.356
1772933780251.0674,-0.0967,-0.0318,-0.9754,1.549,-4.681,-1.347
1772933780251.0674,-0.0975,-0.0298,-0.9787,1.689,-4.804,-1.444
1772933780251.0674,-0.0953,-0.0301,-0.9811,1.645,-4.804,-1.522
1772933780251.0674,-0.0971,-0.0287,-0.9817,1.531,-4.979,-1.426
1772933780251.0674,-0.0963,-0.0262,-0.9824,1.636,-5.101,-1.496
1772933780251.0674,-0.095,-0.0287,-0.9854,1.942,-5.224,-1.426
1772933780266.0781,-0.0974,-0.0266,-0.9884,1.837,-5.268,-1.417
1772933780266.0781,-0.0977,-0.0264,-0.9878,1.89,-5.372,-1.383
1772933780266.0781,-0.0958,-0.0243,-0.9919,2.03,-5.591,-1.409
1772933780266.0781,-0.0921,-0.0257,-0.9874,2.301,-5.635,-1.645
1772933780266.0781,-0.0942,-0.0245,-0.9904,2.126,-5.565,-1.496
1772933780266.0781,-0.0966,-0.0259,-0.9888,2.31,-5.688,-1.566
1772933780266.0781,-0.0964,-0.0268,-0.9887,2.546,-5.871,-1.794
1772933780266.0781,-0.0941,-0.0265,-0.9864,2.721,-6.335,-1.593
1772933780266.0781,-0.0947,-0.0246,-0.9873,2.599,-6.457,-1.741
1772933780266.0781,-0.0964,-0.0228,-0.9856,2.502,-6.178,-1.627
1772933780266.0781,-0.0963,-0.0228,-0.9826,2.599,-6.221,-1.794
1772933780266.0781,-0.0975,-0.0223,-0.9809,2.538,-6.501,-1.671
1772933780281.2083,-0.0976,-0.0236,-0.9798,2.686,-6.475,-1.741
1772933780281.2083,-0.0977,-0.0234,-0.9772,2.581,-6.02,-1.645
1772933780281.2083,-0.0964,-0.0221,-0.9736,2.354,-5.976,-1.54
1772933780281.2083,-0.0969,-0.0237,-0.974,2.292,-6.449,-1.881
1772933780281.2083,-0.0961,-0.0243,-0.9729,2.231,-5.976,-1.907
1772933780281.2083,-0.0964,-0.0249,-0.971,2.021,-5.705,-1.855
1772933780281.2083,-0.0947,-0.0249,-0.9679,1.873,-5.626,-2.083
1772933780281.2083,-0.0962,-0.0238,-0.9712,1.706,-5.25,-1.811
1772933780281.2083,-0.0958,-0.0268,-0.9711,1.356,-4.9,-1.864
1772933780281.2083,-0.0977,-0.0244,-0.9686,1.12,-4.812,-2.1
1772933780281.2083,-0.097,-0.0262,-0.9712,1.041,-4.716,-2.135
1772933780281.2083,-0.0929,-0.0274,-0.9685,0.674,-4.349,-2.336
1772933780296.3914,-0.0939,-0.0256,-0.9719,0.359,-4.357,-1.942
1772933780296.3914,-0.0944,-0.0271,-0.9703,0.087,-4.357,-2.109
1772933780296.3914,-0.0924,-0.0257,-0.9726,-0.193,-4.095,-2.118
1772933780296.3914,-0.0939,-0.0276,-0.9745,-0.63,-3.719,-1.995
1772933780296.3914,-0.0954,-0.025,-0.9744,-1.059,-3.334,-2.013
1772933780296.3914,-0.0949,-0.0289,-0.9786,-1.242,-3.316,-2.013
1772933780296.3914,-0.0928,-0.0267,-0.9774,-1.566,-3.465,-1.899
1772933780296.3914,-0.0882,-0.0271,-0.9789,-1.663,-3.745,-1.899
1772933780296.3914,-0.0891,-0.0302,-0.9764,-1.802,-3.587,-2.047
1772933780296.3914,-0.0881,-0.0289,-0.9808,-2.091,-3.246,-2.047
1772933780296.3914,-0.0878,-0.0306,-0.9835,-2.188,-3.334,-2.249
1772933780296.3914,-0.0875,-0.0302,-0.9854,-2.118,-3.439,-2.223
1772933780311.9949,-0.0875,-0.0295,-0.9834,-2.301,-3.482,-2.17
1772933780311.9949,-0.0834,-0.0315,-0.9876,-2.109,-3.692,-2.24
1772933780311.9949,-0.0839,-0.0306,-0.9866,-2.328,-3.579,-2.433
1772933780311.9949,-0.0829,-0.0329,-0.9915,-2.196,-3.614,-2.406
1772933780311.9949,-0.0829,-0.0339,-0.9903,-1.881,-3.938,-2.126
1772933780311.9949,-0.0827,-0.0322,-0.9887,-2.17,-4.016,-2.152
1772933780311.9949,-0.0813,-0.0331,-0.9911,-1.925,-4.13,-2.17
1772933780311.9949,-0.0807,-0.0353,-0.9903,-1.785,-4.27,-2.179
1772933780311.9949,-0.0797,-0.0346,-0.9935,-1.444,-4.567,-2.013
1772933780311.9949,-0.0803,-0.0344,-0.9946,-1.19,-5.154,-2.109
1772933780311.9949,-0.0809,-0.0354,-0.9943,-1.129,-5.224,-1.969
1772933780311.9949,-0.0773,-0.0345,-0.9965,-0.963,-5.416,-1.873
1772933780311.9949,-0.0763,-0.0343,-0.9948,-0.884,-5.714,-1.846
1772933780327.8289,-0.0786,-0.0342,-0.9953,-0.578,-5.933,-1.925
1772933780327.8289,-0.077,-0.0361,-0.9919,-0.306,-5.836,-1.925
1772933780327.8289,-0.0768,-0.0317,-0.9925,-0.131,-6.169,-2.039
1772933780327.8289,-0.0788,-0.0342,-0.9916,0.236,-6.37,-2.091
1772933780327.8289,-0.0796,-0.0339,-0.9917,0.42,-6.694,-2.03
1772933780327.8289,-0.0771,-0.0325,-0.9911,0.534,-6.764,-2.144
1772933780327.8289,-0.0773,-0.0329,-0.9911,0.998,-7.018,-1.846
1772933780327.8289,-0.0775,-0.0349,-0.9903,1.339,-7.35,-2.03
1772933780327.8289,-0.0772,-0.0318,-0.9886,1.251,-7.341,-1.934
1772933780327.8289,-0.0775,-0.0339,-0.988,1.558,-7.569,-1.619
1772933780327.8289,-0.0795,-0.0327,-0.9871,1.426,-7.954,-1.741
1772933780327.8289,-0.0773,-0.0316,-0.9853,1.785,-7.971,-1.654
1772933780327.8289,-0.0795,-0.0309,-0.9859,1.951,-8.024,-1.776
1772933780343.182,-0.0804,-0.0348,-0.9845,2.161,-8.155,-1.645
1772933780343.182,-0.08,-0.0334,-0.9854,2.362,-8.418,-1.689
1772933780343.182,-0.0813,-0.0334,-0.9877,2.223,-8.348,-1.593
1772933780343.182,-0.08,-0.0321,-0.9814,2.109,-8.111,-1.374
1772933780343.182,-0.0828,-0.0346,-0.9843,2.441,-8.277,-1.654
1772933780343.182,-0.0823,-0.0367,-0.9826,2.433,-8.277,-1.584
1772933780343.182,-0.0824,-0.0345,-0.9811,2.494,-8.523,-1.47
1772933780343.182,-0.083,-0.0335,-0.9802,2.634,-8.295,-1.671
1772933780343.182,-0.0833,-0.0336,-0.9809,2.712,-8.295,-1.391
1772933780343.182,-0.0808,-0.0343,-0.9775,2.695,-8.47,-1.33
1772933780343.182,-0.0847,-0.037,-0.9793,2.607,-8.33,-1.549
1772933780343.182,-0.0841,-0.0372,-0.9772,2.73,-8.383,-1.383
1772933780358.8735,-0.0838,-0.0368,-0.9745,2.704,-8.155,-1.269
1772933780358.8735,-0.085,-0.0366,-0.9762,2.8,-8.085,-1.085
1772933780358.8735,-0.0842,-0.0372,-0.9739,2.879,-8.059,-1.137
1772933780358.8735,-0.0853,-0.0383,-0.9722,2.826,-7.857,-1.041
1772933780358.8735,-0.0843,-0.0362,-0.9734,3.054,-7.831,-0.989
1772933780358.8735,-0.0833,-0.0364,-0.9726,3.15,-7.831,-1.26
1772933780358.8735,-0.0841,-0.0355,-0.9709,3.08,-7.77,-1.181
1772933780358.8735,-0.0856,-0.0371,-0.97,3.176,-7.63,-0.892
1772933780358.8735,-0.0829,-0.0339,-0.9718,2.905,-7.263,-0.91
1772933780358.8735,-0.0854,-0.0339,-0.9751,3.167,-7.42,-1.137
1772933780358.8735,-0.0838,-0.0335,-0.9745,3.325,-7.411,-0.849
1772933780358.8735,-0.0844,-0.0318,-0.9733,3.369,-7.122,-0.691
1772933780358.8735,-0.0852,-0.0325,-0.9761,3.518,-7.026,-1.015
1772933780374.946,-0.0842,-0.0335,-0.9706,3.614,-7.228,-1.032
1772933780374.946,-0.0847,-0.0317,-0.9703,3.386,-7.219,-1.059
1772933780374.946,-0.0888,-0.0322,-0.9731,3.553,-6.982,-0.945
1772933780374.946,-0.0845,-0.0317,-0.9698,3.579,-7.122,-1.208
1772933780374.946,-0.0858,-0.0324,-0.9711,3.386,-6.878,-0.936
1772933780374.946,-0.0858,-0.033,-0.9701,3.526,-6.772,-0.971
1772933780374.946,-0.0849,-0.0307,-0.9687,3.64,-6.571,-0.892
1772933780374.946,-0.0857,-0.0316,-0.9679,3.404,-6.527,-0.936
1772933780374.946,-0.0845,-0.0311,-0.9671,3.237,-6.37,-1.067
1772933780374.946,-0.0897,-0.0282,-0.966,2.94,-6.151,-1.208
1772933780374.946,-0.0877,-0.0272,-0.9672,2.949,-5.959,-0.936
1772933780374.946,-0.0888,-0.028,-0.9642,3.019,-6.221,-0.998
1772933780374.946,-0.0906,-0.0278,-0.9611,3.071,-5.915,-1.041
1772933780390.0376,-0.0875,-0.0273,-0.9647,2.678,-5.906,-0.998
1772933780390.0376,-0.091,-0.0271,-0.9625,2.406,-5.696,-1.041
1772933780390.0376,-0.0906,-0.0275,-0.9665,2.406,-5.705,-1.085
1772933780390.0376,-0.0877,-0.0256,-0.9625,2.406,-5.548,-1.067
1772933780390.0376,-0.0914,-0.0262,-0.9598,2.45,-5.364,-1.208
1772933780390.0376,-0.0921,-0.0239,-0.9633,2.319,-5.372,-1.164
1772933780390.0376,-0.0911,-0.0253,-0.96,2.135,-5.049,-1.094
1772933780390.0376,-0.0921,-0.0251,-0.9626,2.091,-5.049,-1.076
1772933780390.0376,-0.0933,-0.026,-0.9595,1.899,-4.751,-1.19
1772933780390.0376,-0.0922,-0.0264,-0.9603,1.916,-4.506,-1.164
1772933780390.0376,-0.0911,-0.0235,-0.9636,1.794,-4.559,-1.129
1772933780390.0376,-0.0931,-0.0232,-0.9661,1.916,-4.463,-0.989
1772933780405.182,-0.0919,-0.0224,-0.9643,1.873,-4.305,-1.33
1772933780405.182,-0.091,-0.0235,-0.968,1.732,-4.279,-1.103
1772933780405.182,-0.0911,-0.0225,-0.9662,2.1,-4.314,-1.006
1772933780405.182,-0.0903,-0.0234,-0.9698,2.1,-4.156,-1.208
1772933780405.182,-0.09,-0.0226,-0.9695,2.109,-4.156,-1.146
1772933780405.182,-0.0877,-0.0225,-0.9713,2.231,-4.253,-1.155
1772933780405.182,-0.0888,-0.0208,-0.9742,2.371,-4.147,-1.208
1772933780405.182,-0.089,-0.0199,-0.9753,2.231,-4.235,-1.181
1772933780405.182,-0.0892,-0.0204,-0.9755,2.564,-4.41,-1.216
1772933780405.182,-0.0887,-0.0206,-0.9749,2.817,-4.489,-1.242
1772933780405.182,-0.0867,-0.0209,-0.9776,3.001,-4.34,-1.199
1772933780405.182,-0.0897,-0.0187,-0.9809,3.08,-4.384,-1.286
1772933780421.29,-0.0857,-0.0209,-0.9823,3.203,-4.576,-1.304
1772933780421.29,-0.0878,-0.0181,-0.9823,3.491,-4.891,-1.295
1772933780421.29,-0.0864,-0.0189,-0.9836,3.596,-4.725,-1.522
1772933780421.29,-0.085,-0.0194,-0.9844,3.841,-5.04,-1.347
1772933780421.29,-0.086,-0.0198,-0.9876,3.806,-5.005,-1.146
1772933780421.29,-0.0849,-0.0201,-0.9866,4.034,-5.084,-1.208
1772933780421.29,-0.0863,-0.0218,-0.9878,4.183,-5.11,-1.067
1772933780421.29,-0.0853,-0.0212,-0.9892,4.357,-5.268,-1.304
1772933780421.29,-0.0842,-0.0209,-0.9899,4.638,-5.679,-1.347
1772933780421.29,-0.0852,-0.0212,-0.9877,4.725,-5.88,-1.295
1772933780421.29,-0.0831,-0.0214,-0.9883,4.769,-6.055,-1.417
1772933780421.29,-0.0841,-0.023,-0.9895,5.101,-6.195,-1.347
1772933780421.29,-0.0859,-0.0224,-0.9898,5.18,-6.37,-1.365
1772933780421.29,-0.0839,-0.0217,-0.9916,4.961,-6.361,-1.269
1772933780437.327,-0.0858,-0.0232,-0.988,5.128,-6.309,-1.321
1772933780437.327,-0.0847,-0.0245,-0.9882,5.128,-6.641,-1.137
1772933780437.327,-0.0869,-0.0251,-0.9889,5.478,-6.641,-1.129
1772933780437.327,-0.0852,-0.0261,-0.9886,5.39,-7.018,-1.26
1772933780437.327,-0.0866,-0.0274,-0.9887,5.311,-6.939,-1.295
1772933780437.327,-0.0864,-0.0276,-0.9884,5.171,-7.0,-1.383
1772933780437.327,-0.088,-0.0282,-0.9883,5.145,-7.157,-1.295
1772933780437.327,-0.0877,-0.0291,-0.9888,5.11,-7.228,-1.488
1772933780437.327,-0.0874,-0.0324,-0.9851,5.022,-7.157,-1.549
1772933780437.327,-0.0869,-0.0322,-0.9842,5.119,-7.298,-1.558
1772933780437.327,-0.0863,-0.0331,-0.9848,4.926,-7.28,-1.444
1772933780437.327,-0.0884,-0.0343,-0.9862,4.751,-7.28,-1.391
1772933780453.6853,-0.0879,-0.0357,-0.9822,4.725,-7.184,-1.558
1772933780453.6853,-0.0891,-0.0341,-0.9809,4.681,-7.665,-1.645
1772933780453.6853,-0.0873,-0.0369,-0.9823,4.576,-7.499,-1.794
1772933780453.6853,-0.0877,-0.0388,-0.9822,4.314,-7.228,-1.68
1772933780453.6853,-0.0874,-0.0379,-0.9797,4.261,-7.577,-1.593
1772933780453.6853,-0.0882,-0.037,-0.9803,4.016,-7.385,-1.575
1772933780453.6853,-0.0866,-0.04,-0.9801,3.85,-7.28,-1.54
1772933780453.6853,-0.0897,-0.0386,-0.983,3.745,-7.079,-1.33
1772933780453.6853,-0.088,-0.0373,-0.9803,3.587,-7.228,-1.365
1772933780453.6853,-0.0902,-0.0403,-0.9798,3.395,-7.096,-1.435
1772933780453.6853,-0.0883,-0.0385,-0.9808,3.43,-7.122,-1.698
1772933780453.6853,-0.0894,-0.04,-0.979,3.089,-7.0,-1.4
1772933780453.6853,-0.0884,-0.0386,-0.9809,3.071,-6.965,-1.47
1772933780453.6853,-0.0874,-0.0389,-0.9782,2.984,-6.746,-1.383
1772933780469.087,-0.0877,-0.0386,-0.9786,2.783,-6.816,-1.356
1772933780469.087,-0.0896,-0.0384,-0.9782,2.625,-6.414,-1.4
1772933780469.087,-0.0916,-0.0391,-0.978,2.581,-6.598,-1.312
1772933780469.087,-0.089,-0.0364,-0.9777,2.686,-6.808,-1.181
1772933780469.087,-0.0884,-0.0398,-0.9788,2.643,-6.764,-1.409
1772933780469.087,-0.0919,-0.0371,-0.9773,2.371,-6.641,-1.103
1772933780469.087,-0.0908,-0.0359,-0.9784,2.223,-6.309,-1.094
1772933780469.087,-0.0892,-0.037,-0.9786,2.319,-6.405,-1.208
1772933780469.087,-0.0903,-0.0364,-0.9814,2.205,-6.449,-1.444
1772933780469.087,-0.0928,-0.0345,-0.9797,2.126,-6.571,-1.295
1772933780469.087,-0.0918,-0.0346,-0.9765,2.17,-6.3,-1.356
1772933780469.087,-0.0924,-0.0344,-0.9804,2.266,-6.3,-1.295
1772933780485.0757,-0.0927,-0.0351,-0.9777,2.231,-6.055,-1.094
1772933780485.0757,-0.0933,-0.0333,-0.9783,2.223,-6.029,-1.146
1772933780485.0757,-0.0919,-0.032,-0.9788,2.459,-6.282,-1.173
1772933780485.0757,-0.0934,-0.0317,-0.9756,2.328,-6.116,-1.234
1772933780485.0757,-0.0927,-0.0315,-0.9746,2.328,-6.099,-1.024
1772933780485.0757,-0.0932,-0.0304,-0.9729,2.301,-6.274,-1.041
1772933780485.0757,-0.095,-0.0268,-0.9712,2.406,-5.994,-1.19
1772933780485.0757,-0.0925,-0.0268,-0.9734,2.406,-5.95,-1.067
1772933780485.0757,-0.0934,-0.0285,-0.9734,2.467,-6.107,-1.05
1772933780485.0757,-0.0975,-0.0277,-0.972,2.24,-5.959,-0.858
1772933780485.0757,-0.0958,-0.0248,-0.9728,2.354,-6.037,-1.076
1772933780485.0757,-0.0948,-0.0256,-0.9692,2.389,-5.95,-1.216
1772933780485.0757,-0.0969,-0.0259,-0.9705,2.38,-5.854,-0.963
1772933780500.6357,-0.0949,-0.0254,-0.9695,2.389,-5.836,-1.067
1772933780500.6357,-0.0948,-0.0257,-0.9668,2.336,-5.705,-1.181
1772933780500.6357,-0.0975,-0.0243,-0.9682,2.441,-5.582,-1.137
1772933780500.6357,-0.0936,-0.0231,-0.971,2.476,-5.425,-1.067
1772933780500.6357,-0.0942,-0.0249,-0.9668,2.459,-5.495,-1.076
1772933780500.6357,-0.0953,-0.0251,-0.9677,2.362,-5.276,-1.067
1772933780500.6357,-0.0956,-0.0254,-0.9679,2.328,-5.11,-0.998
1772933780500.6357,-0.0948,-0.0247,-0.9653,2.284,-5.145,-0.989
1772933780500.6357,-0.0958,-0.0245,-0.9694,2.336,-4.935,-0.998
1772933780500.6357,-0.0971,-0.0226,-0.9638,2.31,-5.075,-1.085
1772933780500.6357,-0.0952,-0.0245,-0.9663,2.354,-4.97,-0.892
1772933780500.6357,-0.0949,-0.0239,-0.9674,2.433,-4.865,-1.067
1772933780500.6357,-0.092,-0.0246,-0.9661,2.555,-4.497,-1.181
1772933780515.7534,-0.0956,-0.0253,-0.9676,2.643,-4.603,-1.076
1772933780515.7534,-0.0929,-0.0265,-0.9697,2.607,-4.541,-0.901
1772933780515.7534,-0.093,-0.0249,-0.9702,2.424,-4.567,-0.805
1772933780515.7534,-0.0935,-0.0247,-0.9686,2.546,-4.725,-0.927
1772933780515.7534,-0.0933,-0.0255,-0.9699,2.905,-4.489,-1.225
1772933780515.7534,-0.093,-0.0272,-0.9699,3.001,-4.576,-1.155
1772933780515.7534,-0.0915,-0.0258,-0.97,2.538,-4.497,-1.19
1772933780515.7534,-0.0938,-0.0242,-0.9693,2.94,-4.445,-1.146
1772933780515.7534,-0.0918,-0.0271,-0.9706,2.914,-4.567,-0.91
1772933780515.7534,-0.0899,-0.0265,-0.9715,2.774,-4.375,-0.858
1772933780515.7534,-0.0908,-0.025,-0.9729,2.949,-4.567,-0.927
1772933780515.7534,-0.0903,-0.0255,-0.9726,3.132,-4.664,-1.085
1772933780531.637,-0.0911,-0.025,-0.9734,3.159,-4.559,-1.024
1772933780531.637,-0.0886,-0.028,-0.9751,3.176,-4.655,-1.032
1772933780531.637,-0.0913,-0.0278,-0.9744,3.167,-4.812,-1.05
1772933780531.637,-0.0894,-0.0297,-0.9748,3.272,-4.97,-1.041
1772933780531.637,-0.0904,-0.0274,-0.9763,3.264,-4.664,-1.103
1772933780531.637,-0.0877,-0.0279,-0.9797,3.316,-4.777,-1.208
1772933780531.637,-0.0886,-0.0284,-0.9789,3.386,-4.926,-1.12
1772933780531.637,-0.0902,-0.0282,-0.9761,3.272,-5.093,-1.076
1772933780531.637,-0.0881,-0.0278,-0.978,3.43,-4.987,-1.225
1772933780531.637,-0.0876,-0.0277,-0.9802,3.587,-5.355,-1.164
1772933780531.637,-0.0907,-0.0293,-0.9787,3.579,-5.793,-1.103
1772933780531.637,-0.0883,-0.0275,-0.978,3.71,-5.338,-0.98
1772933780531.637,-0.0877,-0.0271,-0.9769,3.587,-5.25,-1.015
1772933780547.8508,-0.0909,-0.0303,-0.981,3.482,-5.688,-0.884
1772933780547.8508,-0.0892,-0.0301,-0.9792,3.587,-5.688,-0.98
1772933780547.8508,-0.0899,-0.0296,-0.9787,3.561,-5.862,-1.05
1772933780547.8508,-0.0884,-0.0284,-0.98,3.789,-5.871,-1.278
1772933780547.8508,-0.0891,-0.0312,-0.9771,3.78,-6.046,-1.312
1772933780547.8508,-0.0889,-0.0283,-0.9798,3.605,-6.003,-1.216
1772933780547.8508,-0.0878,-0.029,-0.9806,3.841,-6.16,-1.137
1772933780547.8508,-0.0881,-0.03,-0.9775,3.596,-6.475,-1.137
1772933780547.8508,-0.0869,-0.0301,-0.9791,3.675,-6.072,-1.234
1772933780547.8508,-0.0872,-0.0291,-0.9783,4.025,-6.204,-0.901
1772933780547.8508,-0.0879,-0.0293,-0.9784,4.183,-6.23,-0.858
1772933780547.8508,-0.0886,-0.0314,-0.9798,3.999,-6.282,-1.032
1772933780547.8508,-0.0876,-0.0269,-0.979,3.763,-6.326,-0.998
1772933780562.7517,-0.0909,-0.0303,-0.9772,3.841,-6.431,-1.006
1772933780562.7517,-0.0889,-0.0278,-0.9784,3.841,-6.23,-1.12
1772933780562.7517,-0.088,-0.0282,-0.9798,3.859,-6.23,-1.129
1772933780562.7517,-0.0874,-0.0283,-0.979,3.841,-6.633,-0.858
1772933780562.7517,-0.0877,-0.0274,-0.9772,3.929,-6.536,-0.954
1772933780562.7517,-0.0886,-0.0287,-0.9773,3.797,-6.221,-1.085
1772933780562.7517,-0.0891,-0.03,-0.9773,3.745,-6.37,-1.006
1772933780562.7517,-0.0885,-0.0304,-0.9763,3.666,-6.204,-0.945
1772933780562.7517,-0.0872,-0.0298,-0.9779,3.579,-6.274,-0.98
1772933780562.7517,-0.0889,-0.0296,-0.9781,3.596,-6.51,-0.91
1772933780562.7517,-0.0892,-0.0287,-0.9762,3.675,-6.317,-0.936
1772933780562.7517,-0.0899,-0.0274,-0.9741,3.649,-6.282,-0.998
1772933780578.463,-0.0889,-0.0292,-0.9737,3.474,-6.589,-1.015
1772933780578.463,-0.0875,-0.0294,-0.9747,3.482,-6.457,-1.05
1772933780578.463,-0.0898,-0.0276,-0.9731,3.509,-6.414,-1.059
1772933780578.463,-0.0908,-0.0277,-0.9748,3.439,-6.484,-1.094
1772933780578.463,-0.0899,-0.0298,-0.9726,3.413,-6.247,-0.998
1772933780578.463,-0.0885,-0.0289,-0.9758,3.308,-6.178,-0.971
1772933780578.463,-0.0899,-0.0271,-0.9756,3.439,-6.178,-0.989
1772933780578.463,-0.0915,-0.0288,-0.9736,3.395,-6.046,-1.146
1772933780578.463,-0.0889,-0.029,-0.9748,3.141,-6.151,-1.103
1772933780578.463,-0.0894,-0.0289,-0.9727,3.027,-6.317,-0.963
1772933780578.463,-0.0904,-0.0267,-0.972,3.01,-6.239,-0.989
1772933780578.463,-0.0897,-0.0274,-0.9724,3.089,-6.011,-1.199
1772933780578.463,-0.09,-0.0291,-0.9732,3.272,-6.195,-1.199
1772933780594.3103,-0.0896,-0.0271,-0.9723,3.22,-6.186,-1.225
1772933780594.3103,-0.0895,-0.0277,-0.9721,3.141,-5.889,-1.085
1772933780594.3103,-0.0902,-0.0278,-0.9727,3.124,-5.906,-1.347
1772933780594.3103,-0.0903,-0.0284,-0.9722,3.36,-6.09,-1.435
1772933780594.3103,-0.0907,-0.0287,-0.9731,3.237,-6.046,-1.312
1772933780594.3103,-0.09,-0.0276,-0.9706,3.089,-5.793,-1.225
1772933780594.3103,-0.0887,-0.0283,-0.9728,3.211,-5.959,-1.173
1772933780594.3103,-0.0894,-0.0291,-0.9719,3.176,-5.723,-1.278
1772933780594.3103,-0.0894,-0.0271,-0.9718,3.159,-5.652,-1.146
1772933780594.3103,-0.0911,-0.0272,-0.9706,3.159,-5.661,-1.383
1772933780594.3103,-0.09,-0.0243,-0.9729,3.377,-5.521,-1.199
1772933780594.3103,-0.0887,-0.0249,-0.9739,3.308,-5.617,-1.216
1772933780594.3103,-0.0895,-0.0269,-0.971,3.124,-5.766,-1.032
1772933780609.823,-0.0895,-0.0284,-0.9725,3.342,-5.793,-1.234
1772933780609.823,-0.0899,-0.0265,-0.9737,3.325,-5.539,-1.26
1772933780609.823,-0.0899,-0.0267,-0.974,3.089,-5.635,-1.173
1772933780609.823,-0.0914,-0.0275,-0.9747,2.888,-5.854,-1.304
1772933780609.823,-0.0888,-0.0286,-0.9729,3.106,-5.635,-1.173
1772933780609.823,-0.0921,-0.0283,-0.975,3.211,-5.364,-1.321
1772933780609.823,-0.0902,-0.0267,-0.9721,3.308,-5.81,-1.225
1772933780609.823,-0.0897,-0.0271,-0.9736,3.08,-5.416,-1.286
1772933780609.823,-0.0915,-0.0289,-0.9725,3.246,-5.469,-1.549
1772933780609.823,-0.0897,-0.0271,-0.9727,3.159,-5.758,-1.496
1772933780609.823,-0.0895,-0.027,-0.9745,3.098,-5.442,-1.47
1772933780609.823,-0.0895,-0.0273,-0.9733,3.194,-5.539,-1.601
1772933780625.8325,-0.0909,-0.0257,-0.9708,3.281,-5.469,-1.47
1772933780625.8325,-0.0895,-0.0287,-0.9723,3.203,-5.346,-1.4
1772933780625.8325,-0.0901,-0.028,-0.9727,3.264,-5.53,-1.549
1772933780625.8325,-0.0913,-0.0293,-0.9741,3.098,-5.259,-1.33
1772933780625.8325,-0.0888,-0.0295,-0.9732,3.019,-5.609,-1.295
1772933780625.8325,-0.0896,-0.0286,-0.973,3.15,-5.329,-1.636
1772933780625.8325,-0.0894,-0.0281,-0.9728,3.045,-5.101,-1.514
1772933780625.8325,-0.0886,-0.0301,-0.9729,3.141,-5.206,-1.383
1772933780625.8325,-0.0893,-0.0291,-0.9723,2.931,-5.32,-1.417
1772933780625.8325,-0.088,-0.0281,-0.9731,2.958,-5.364,-1.234
1772933780625.8325,-0.0879,-0.0304,-0.9708,3.054,-5.215,-1.444
1772933780625.8325,-0.0887,-0.0295,-0.9717,3.15,-5.355,-1.426
1772933780625.8325,-0.0922,-0.0282,-0.9737,3.237,-5.101,-1.312
1772933780625.8325,-0.0893,-0.029,-0.9716,3.194,-5.145,-1.505
1772933780641.4885,-0.09,-0.0292,-0.973,2.922,-5.04,-1.461
1772933780641.4885,-0.0898,-0.0295,-0.9714,2.975,-4.909,-1.067
1772933780641.4885,-0.0892,-0.0279,-0.9717,3.229,-5.04,-1.312
1772933780641.4885,-0.0896,-0.0304,-0.9697,3.054,-5.119,-1.488
1772933780641.4885,-0.0902,-0.0308,-0.9715,2.993,-5.189,-1.312
1772933780641.4885,-0.0905,-0.0297,-0.9707,3.001,-5.171,-1.619
1772933780641.4885,-0.0888,-0.0274,-0.9723,3.115,-5.075,-1.47
1772933780641.4885,-0.0903,-0.0291,-0.9734,2.94,-5.136,-1.216
1772933780641.4885,-0.0899,-0.0287,-0.9726,3.001,-5.119,-1.391
1772933780641.4885,-0.09,-0.0306,-0.9721,2.879,-5.005,-1.426
1772933780641.4885,-0.0914,-0.029,-0.9704,2.739,-5.005,-1.391
1772933780641.4885,-0.0883,-0.0299,-0.9693,2.817,-4.9,-1.435
1772933780657.0833,-0.0902,-0.0287,-0.9728,2.835,-5.128,-1.4
1772933780657.0833,-0.0894,-0.0278,-0.9732,2.826,-4.891,-1.531
1772933780657.0833,-0.09,-0.0293,-0.9745,2.8,-4.751,-1.435
1772933780657.0833,-0.0888,-0.0295,-0.9741,2.931,-4.891,-1.417
1772933780657.0833,-0.0902,-0.0287,-0.9759,2.651,-5.128,-1.234
1772933780657.0833,-0.0902,-0.0289,-0.9753,2.783,-4.856,-1.12
1772933780657.0833,-0.0896,-0.0296,-0.9734,2.546,-4.786,-1.356
1772933780657.0833,-0.0893,-0.029,-0.9727,2.599,-4.821,-1.356
1772933780657.0833,-0.0881,-0.029,-0.9756,2.651,-4.874,-1.566
1772933780657.0833,-0.0893,-0.0254,-0.9749,2.949,-4.952,-1.496
1772933780657.0833,-0.0906,-0.029,-0.9765,2.835,-4.83,-1.566
1772933780657.0833,-0.089,-0.0278,-0.9759,2.826,-4.987,-1.312
1772933780657.0833,-0.0898,-0.0267,-0.9782,2.844,-4.839,-1.234
1772933780673.4646,-0.0885,-0.0286,-0.9774,2.853,-5.136,-1.242
1772933780673.4646,-0.0888,-0.0255,-0.979,2.634,-4.935,-1.54
1772933780673.4646,-0.0886,-0.0249,-0.9792,2.774,-5.145,-1.295
1772933780673.4646,-0.0874,-0.0273,-0.9797,2.861,-5.18,-1.488
1772933780673.4646,-0.0875,-0.0264,-0.9812,2.914,-5.171,-1.601
1772933780673.4646,-0.091,-0.0254,-0.9798,2.888,-5.303,-1.505
1772933780673.4646,-0.0913,-0.0257,-0.9831,2.922,-5.582,-1.514
1772933780673.4646,-0.0903,-0.0254,-0.9833,3.019,-5.39,-1.452
1772933780673.4646,-0.0897,-0.027,-0.9838,3.01,-5.32,-1.522
1772933780673.4646,-0.0904,-0.0255,-0.9828,3.01,-5.425,-1.531
1772933780673.4646,-0.0896,-0.0241,-0.9827,3.185,-5.723,-1.663
1772933780673.4646,-0.0897,-0.0254,-0.9837,3.132,-5.889,-1.356
1772933780673.4646,-0.091,-0.0273,-0.9841,3.203,-6.116,-1.339
1772933780688.826,-0.0902,-0.0249,-0.9855,3.237,-6.046,-1.531
1772933780688.826,-0.0917,-0.0253,-0.9847,3.062,-5.968,-1.514
1772933780688.826,-0.0903,-0.0247,-0.9821,3.089,-6.213,-1.383
1772933780688.826,-0.0888,-0.0256,-0.9832,3.036,-6.011,-1.435
1772933780688.826,-0.0906,-0.026,-0.9787,3.211,-6.116,-1.575
1772933780688.826,-0.0906,-0.0262,-0.9811,3.098,-6.23,-1.47
1772933780688.826,-0.0928,-0.0294,-0.9793,2.922,-6.169,-1.444
1772933780688.826,-0.0894,-0.0261,-0.9795,3.045,-6.265,-1.514
1772933780688.826,-0.0881,-0.0275,-0.9783,3.089,-6.213,-1.724
1772933780688.826,-0.0902,-0.0275,-0.9769,3.01,-6.143,-1.505
1772933780688.826,-0.0913,-0.0278,-0.974,3.001,-6.151,-1.549
1772933780688.826,-0.0903,-0.0267,-0.9755,2.914,-6.527,-1.505
1772933780705.2957,-0.0913,-0.0261,-0.9753,3.054,-6.3,-1.689
1772933780705.2957,-0.0919,-0.0258,-0.9737,3.071,-6.046,-1.461
1772933780705.2957,-0.0905,-0.0285,-0.9738,3.01,-5.976,-1.417
1772933780705.2957,-0.0913,-0.0278,-0.9733,3.159,-5.827,-1.312
1772933780705.2957,-0.0922,-0.0283,-0.9744,2.905,-5.53,-1.461
1772933780705.2957,-0.0919,-0.0268,-0.9726,2.817,-5.775,-1.461
1772933780705.2957,-0.0914,-0.0274,-0.9741,2.817,-5.784,-1.4
1772933780705.2957,-0.0901,-0.0289,-0.9739,2.844,-5.758,-1.391
1772933780705.2957,-0.0912,-0.0277,-0.9713,2.809,-5.521,-1.531
1772933780705.2957,-0.0885,-0.0295,-0.973,2.686,-5.46,-1.4
1772933780705.2957,-0.0916,-0.0275,-0.9739,2.669,-5.093,-1.444
1772933780705.2957,-0.0911,-0.0269,-0.9727,2.476,-4.987,-1.452
1772933780705.2957,-0.0936,-0.0295,-0.9739,2.529,-5.066,-1.19
1772933780705.2957,-0.0924,-0.0286,-0.9724,2.555,-4.918,-1.417
1772933780719.9412,-0.091,-0.0301,-0.9723,2.546,-4.742,-1.645
1772933780719.9412,-0.0918,-0.0287,-0.9712,2.406,-4.69,-1.575
1772933780719.9412,-0.0921,-0.0292,-0.971,2.459,-4.891,-1.444
1772933780719.9412,-0.0923,-0.0281,-0.9715,2.152,-4.742,-1.33
1772933780719.9412,-0.0917,-0.0301,-0.9717,2.257,-4.463,-1.435
1772933780719.9412,-0.0932,-0.0307,-0.9727,2.257,-4.393,-1.435
1772933780719.9412,-0.0947,-0.0282,-0.9706,2.24,-4.524,-1.347
1772933780719.9412,-0.0924,-0.031,-0.9726,1.969,-4.489,-1.409
1772933780719.9412,-0.0917,-0.0315,-0.9725,1.978,-4.646,-1.558
1772933780719.9412,-0.0944,-0.0285,-0.9737,2.118,-4.594,-1.312
1772933780719.9412,-0.0926,-0.0278,-0.9712,2.118,-4.681,-1.452
1772933780719.9412,-0.0928,-0.0293,-0.9702,1.925,-4.41,-1.452
1772933780735.6587,-0.0921,-0.0279,-0.9719,1.846,-4.253,-1.452
1772933780735.6587,-0.0942,-0.0308,-0.9721,1.873,-4.506,-1.575
1772933780735.6587,-0.0932,-0.0299,-0.9733,1.951,-4.322,-1.312
1772933780735.6587,-0.092,-0.0288,-0.9732,1.96,-4.235,-1.4
1772933780735.6587,-0.0919,-0.0313,-0.9714,1.837,-4.104,-1.295
1772933780735.6587,-0.0925,-0.0279,-0.9745,1.881,-3.885,-1.356
1772933780735.6587,-0.0903,-0.029,-0.9727,1.969,-4.191,-1.356
1772933780735.6587,-0.0935,-0.0298,-0.9726,1.873,-4.305,-1.417
1772933780735.6587,-0.0907,-0.0285,-0.9742,2.109,-4.366,-1.54
1772933780735.6587,-0.093,-0.0282,-0.974,1.907,-4.27,-1.488
1772933780735.6587,-0.0899,-0.0281,-0.9742,1.934,-4.183,-1.365
1772933780735.6587,-0.09,-0.0277,-0.9749,2.17,-4.086,-1.54
1772933780735.6587,-0.0911,-0.0284,-0.9734,2.126,-4.27,-1.575
1772933780751.4602,-0.091,-0.0276,-0.9748,2.135,-4.261,-1.566
1772933780751.4602,-0.0893,-0.0257,-0.9759,2.292,-4.261,-1.636
1772933780751.4602,-0.0913,-0.0276,-0.9787,2.485,-4.261,-1.54
1772933780751.4602,-0.0916,-0.0245,-0.9804,2.389,-4.034,-1.444
1772933780751.4602,-0.0917,-0.0271,-0.9813,2.529,-4.086,-1.522
1772933780751.4602,-0.0905,-0.0277,-0.9811,2.616,-4.06,-1.593
1772933780751.4602,-0.0888,-0.0271,-0.9839,2.721,-4.279,-1.61
1772933780751.4602,-0.089,-0.0254,-0.9841,2.826,-4.34,-1.4
1772933780751.4602,-0.0889,-0.0246,-0.9855,2.835,-4.454,-1.278
1772933780751.4602,-0.0912,-0.0253,-0.9898,3.098,-4.664,-1.531
1772933780751.4602,-0.0891,-0.0258,-0.9909,3.334,-4.62,-1.54
1772933780751.4602,-0.0888,-0.0228,-0.9922,3.272,-4.603,-1.426
1772933780767.2732,-0.0885,-0.0215,-0.9958,3.78,-4.629,-1.566
1772933780767.2732,-0.0902,-0.0224,-0.9958,4.121,-4.611,-1.479
1772933780767.2732,-0.0922,-0.0242,-0.9992,4.331,-5.285,-1.47
1772933780767.2732,-0.0916,-0.0243,-1.001,4.463,-5.451,-1.531
1772933780767.2732,-0.0891,-0.0228,-1.0014,4.891,-5.303,-1.47
1772933780767.2732,-0.0908,-0.0226,-1.0026,5.075,-5.539,-1.75
1772933780767.2732,-0.0911,-0.023,-1.0022,5.574,-6.099,-1.663
1772933780767.2732,-0.0917,-0.0224,-1.0028,5.801,-6.291,-1.759
1772933780767.2732,-0.0913,-0.0219,-1.0022,5.793,-6.344,-1.689
1772933780767.2732,-0.0897,-0.0231,-1.0016,6.178,-6.519,-1.837
1772933780767.2732,-0.0893,-0.0234,-1.0049,6.571,-6.685,-2.039
1772933780767.2732,-0.0891,-0.0248,-1.0033,6.869,-7.131,-2.144
1772933780767.2732,-0.0874,-0.0278,-1.0002,6.947,-7.429,-2.03
1772933780782.6072,-0.0894,-0.0282,-0.9964,7.201,-7.464,-2.021
1772933780782.6072,-0.09,-0.0288,-0.9969,7.254,-7.665,-1.873
1772933780782.6072,-0.0888,-0.031,-0.9919,7.114,-7.814,-1.619
1772933780782.6072,-0.0911,-0.0317,-0.989,7.088,-7.665,-1.698
1772933780782.6072,-0.0888,-0.0335,-0.987,6.947,-7.63,-1.794
1772933780782.6072,-0.0912,-0.0366,-0.9827,6.624,-7.612,-1.452
1772933780782.6072,-0.0885,-0.0396,-0.979,6.309,-7.718,-1.619
1772933780782.6072,-0.0892,-0.0428,-0.9744,6.055,-7.595,-1.566
1772933780782.6072,-0.0888,-0.042,-0.9725,5.644,-7.473,-1.505
1772933780782.6072,-0.0887,-0.0434,-0.9678,4.97,-7.341,-1.391
1772933780782.6072,-0.0852,-0.0447,-0.9628,4.366,-7.088,-1.391
1772933780782.6072,-0.0875,-0.0461,-0.9595,3.894,-6.851,-1.374
1772933780798.2605,-0.0871,-0.0462,-0.9573,3.124,-6.545,-1.426
1772933780798.2605,-0.0865,-0.0487,-0.9528,2.406,-6.274,-1.155
1772933780798.2605,-0.0867,-0.0496,-0.9503,1.522,-6.055,-1.19
1772933780798.2605,-0.0849,-0.0481,-0.9461,1.024,-5.644,-1.129
1772933780798.2605,-0.0864,-0.0503,-0.9459,0.411,-5.276,-1.278
1772933780798.2605,-0.0833,-0.0501,-0.9424,-0.184,-5.005,-0.936
1772933780798.2605,-0.0877,-0.0474,-0.9403,-0.98,-4.261,-0.866
1772933780798.2605,-0.0841,-0.0461,-0.9399,-1.47,-3.797,-0.963
1772933780798.2605,-0.0833,-0.0463,-0.9412,-1.881,-3.316,-0.709
1772933780798.2605,-0.0843,-0.0437,-0.9381,-2.223,-2.791,-0.892
1772933780798.2605,-0.0816,-0.0375,-0.9403,-2.748,-2.511,-0.998
1772933780798.2605,-0.0825,-0.0365,-0.9439,-2.774,-2.319,-0.744
1772933780798.2605,-0.0807,-0.033,-0.9464,-3.124,-2.056,-0.963
1772933780814.2456,-0.0831,-0.0274,-0.9506,-2.905,-1.593,-1.041
1772933780814.2456,-0.0822,-0.0256,-0.9559,-2.8,-1.339,-1.032
1772933780814.2456,-0.0788,-0.0214,-0.9631,-2.406,-1.269,-1.26
1772933780814.2456,-0.077,-0.0178,-0.9721,-2.03,-1.173,-1.365
1772933780814.2456,-0.0762,-0.0131,-0.9799,-1.654,-1.435,-1.426
1772933780814.2456,-0.0766,-0.0113,-0.9872,-0.989,-1.558,-1.61
1772933780814.2456,-0.076,-0.008,-0.9941,-0.061,-1.759,-1.741
1772933780814.2456,-0.0762,-0.0069,-0.9997,0.604,-2.118,-1.785
1772933780814.2456,-0.0765,-0.0041,-1.0095,1.575,-2.844,-2.056
1772933780814.2456,-0.0775,-0.0062,-1.0152,2.634,-3.255,-2.1
1772933780814.2456,-0.0767,-0.0052,-1.0155,3.413,-4.384,-2.231
1772933780814.2456,-0.0759,-0.0063,-1.0183,4.069,-4.821,-2.214
1772933780814.2456,-0.0789,-0.0054,-1.0174,4.769,-5.469,-2.371
1772933780829.5764,-0.0792,-0.0066,-1.0177,5.25,-6.204,-2.31
1772933780829.5764,-0.079,-0.0111,-1.0163,5.959,-6.921,-2.38
1772933780829.5764,-0.0785,-0.0112,-1.011,6.379,-7.621,-2.345
1772933780829.5764,-0.0797,-0.011,-1.0083,6.536,-8.05,-2.284
1772933780829.5764,-0.08,-0.0146,-1.001,6.694,-8.61,-2.126
1772933780829.5764,-0.0812,-0.0189,-0.9952,6.746,-9.144,-2.214
1772933780829.5764,-0.0829,-0.0193,-0.9856,6.869,-9.467,-1.969
1772933780829.5764,-0.0867,-0.0199,-0.9823,6.527,-9.599,-1.82
1772933780829.5764,-0.0858,-0.0235,-0.9755,6.44,-9.975,-1.706
1772933780829.5764,-0.0899,-0.0245,-0.9662,6.291,-9.818,-1.811
1772933780829.5764,-0.0905,-0.0267,-0.9612,6.134,-9.765,-1.724
1772933780829.5764,-0.0936,-0.0295,-0.9556,5.976,-9.616,-1.54
1772933780845.4226,-0.0939,-0.0295,-0.9523,5.696,-9.004,-1.208
1772933780845.4226,-0.0936,-0.0303,-0.9434,5.425,-8.785,-1.278
1772933780845.4226,-0.0961,-0.0321,-0.9387,5.241,-8.531,-1.129
1772933780845.4226,-0.0967,-0.0328,-0.936,4.839,-7.718,-0.945
1772933780845.4226,-0.0991,-0.032,-0.9306,4.357,-7.569,-1.059
1772933780845.4226,-0.0997,-0.0348,-0.9305,4.41,-7.009,-0.875
1772933780845.4226,-0.1033,-0.0362,-0.9285,4.034,-6.221,-0.7
1772933780845.4226,-0.1013,-0.0363,-0.9296,3.465,-5.731,-0.814
1772933780845.4226,-0.1036,-0.0362,-0.9298,3.054,-5.066,-0.718
1772933780845.4226,-0.1036,-0.0392,-0.9299,2.467,-4.375,-0.752
1772933780845.4226,-0.1063,-0.0386,-0.9332,1.881,-3.605,-0.578
1772933780845.4226,-0.1063,-0.038,-0.9349,1.785,-2.835,-0.604
1772933780845.4226,-0.1032,-0.0395,-0.9388,1.339,-2.467,-0.63
1772933780860.859,-0.1035,-0.037,-0.9431,1.041,-1.741,-0.376
1772933780860.859,-0.1059,-0.0375,-0.9489,0.586,-1.208,-0.341
1772933780860.859,-0.106,-0.0367,-0.955,0.394,-0.726,-0.578
1772933780860.859,-0.1073,-0.0357,-0.9588,0.079,-0.481,-0.385
1772933780860.859,-0.1041,-0.0347,-0.97,-0.035,-0.333,-0.586
1772933780860.859,-0.1046,-0.0336,-0.9765,-0.42,-0.228,-0.507
1772933780860.859,-0.1053,-0.034,-0.983,-0.472,0.228,-0.516
1772933780860.859,-0.1039,-0.0339,-0.9911,-0.858,0.446,-0.367
1772933780860.859,-0.1023,-0.0305,-0.9993,-0.945,0.481,-0.438
1772933780860.859,-0.1036,-0.0323,-1.0078,-0.77,0.35,-0.455
1772933780860.859,-0.1016,-0.03,-1.0147,-0.77,-0.07,-0.787
1772933780860.859,-0.1046,-0.0286,-1.0235,-0.787,-0.245,-0.752
1772933780860.859,-0.1031,-0.0292,-1.0303,-0.814,-0.709,-0.875
1772933780876.2734,-0.102,-0.0279,-1.0319,-0.7,-0.542,-0.954
1772933780876.2734,-0.1003,-0.0272,-1.0367,-0.21,-1.173,-1.032
1772933780876.2734,-0.1009,-0.0274,-1.0375,-0.263,-1.75,-1.103
1772933780876.2734,-0.099,-0.0274,-1.0383,-0.158,-2.03,-1.304
1772933780876.2734,-0.0991,-0.0273,-1.0375,0.044,-2.467,-1.321
1772933780876.2734,-0.0979,-0.024,-1.0313,0.201,-2.616,-1.374
1772933780876.2734,-0.0996,-0.0263,-1.0272,0.507,-2.853,-1.514
1772933780876.2734,-0.0989,-0.0243,-1.02,0.578,-3.054,-1.54
1772933780876.2734,-0.1008,-0.0275,-1.0106,0.621,-3.308,-1.47
1772933780876.2734,-0.0987,-0.0265,-1.005,0.875,-3.237,-1.575
1772933780876.2734,-0.1011,-0.0257,-0.9969,1.05,-3.054,-1.627
1772933780876.2734,-0.0969,-0.0276,-0.9908,0.989,-2.774,-1.601
1772933780891.6987,-0.1014,-0.0273,-0.9867,0.945,-2.45,-1.566
1772933780891.6987,-0.1003,-0.0303,-0.9811,0.945,-2.17,-1.514
1772933780891.6987,-0.0969,-0.0296,-0.9796,0.647,-2.039,-1.759
1772933780891.6987,-0.0966,-0.0296,-0.9769,0.639,-1.715,-1.934
1772933780891.6987,-0.0964,-0.0293,-0.9798,0.263,-1.076,-1.978
1772933780891.6987,-0.0964,-0.0298,-0.9822,0.079,-0.779,-2.083
1772933780891.6987,-0.0927,-0.0332,-0.9838,-0.07,-0.271,-1.951
1772933780891.6987,-0.0941,-0.0311,-0.9864,-0.385,-0.07,-1.794
1772933780891.6987,-0.0918,-0.0281,-0.9932,-0.394,0.149,-2.039
1772933780891.6987,-0.0903,-0.0317,-0.9959,-0.735,0.158,-2.013
1772933780891.6987,-0.0872,-0.0286,-0.9988,-1.181,0.446,-2.126
1772933780891.6987,-0.0873,-0.0307,-1.002,-1.199,0.359,-2.17
1772933780891.6987,-0.0838,-0.0289,-1.007,-1.19,0.394,-2.118
1772933780907.038,-0.0834,-0.0285,-1.0105,-1.4,-0.087,-1.951
1772933780907.038,-0.0819,-0.0297,-1.0139,-1.199,-0.228,-1.986
1772933780907.038,-0.0791,-0.0309,-1.0163,-1.181,-0.674,-2.039
1772933780907.038,-0.078,-0.0278,-1.0153,-0.998,-1.26,-2.17
1772933780907.038,-0.0752,-0.0285,-1.0143,-0.586,-1.978,-2.039
1772933780907.038,-0.0754,-0.0285,-1.0142,-0.455,-2.546,-1.951
1772933780907.038,-0.0747,-0.0291,-1.0105,-0.228,-3.167,-1.96
1772933780907.038,-0.0753,-0.0298,-1.0031,0.254,-3.964,-2.013
1772933780907.038,-0.0698,-0.0292,-1.0004,0.481,-4.891,-2.083
1772933780907.038,-0.0709,-0.0306,-0.9966,0.621,-5.469,-1.82
1772933780907.038,-0.0732,-0.0303,-0.9913,0.892,-5.766,-1.978
1772933780907.038,-0.0691,-0.03,-0.9849,1.26,-6.93,-1.916
1772933780923.4167,-0.0706,-0.0313,-0.9833,1.496,-7.91,-1.593
1772933780923.4167,-0.0709,-0.0296,-0.9729,1.575,-8.216,-1.558
1772933780923.4167,-0.0699,-0.0295,-0.9687,2.091,-8.908,-1.61
1772933780923.4167,-0.0705,-0.0316,-0.9639,2.17,-9.31,-1.461
1772933780923.4167,-0.07,-0.0322,-0.9614,2.345,-9.783,-1.321
1772933780923.4167,-0.0706,-0.0307,-0.9575,2.494,-10.141,-1.269
1772933780923.4167,-0.0752,-0.031,-0.9519,2.669,-10.684,-1.146
1772933780923.4167,-0.0729,-0.0318,-0.9482,2.966,-10.894,-1.269
1772933780923.4167,-0.0744,-0.0339,-0.9448,3.299,-11.2,-1.129
1772933780923.4167,-0.0754,-0.0296,-0.9423,3.386,-11.296,-1.164
1772933780923.4167,-0.0792,-0.0291,-0.9392,3.071,-11.06,-1.137
1772933780923.4167,-0.0795,-0.0292,-0.937,3.22,-11.121,-1.173
1772933780923.4167,-0.0811,-0.0279,-0.9328,3.587,-11.148,-1.208
1772933780923.4167,-0.0826,-0.0265,-0.9345,3.544,-11.139,-1.173
1772933780938.9856,-0.0811,-0.0237,-0.9348,3.85,-10.797,-1.208
1772933780938.9856,-0.0838,-0.0228,-0.9306,3.964,-10.526,-1.304
1772933780938.9856,-0.083,-0.0218,-0.9312,4.104,-10.386,-1.383
1772933780938.9856,-0.0876,-0.0202,-0.933,4.322,-10.168,-1.234
1772933780938.9856,-0.0877,-0.0197,-0.9365,4.419,-9.669,-1.356
1772933780938.9856,-0.0881,-0.0203,-0.9362,4.314,-9.179,-1.4
1772933780938.9856,-0.0889,-0.0192,-0.9403,4.401,-8.636,-1.522
1772933780938.9856,-0.0875,-0.0153,-0.9398,4.83,-8.444,-1.627
1772933780938.9856,-0.09,-0.0127,-0.9424,4.883,-8.199,-1.881
1772933780938.9856,-0.0893,-0.0158,-0.9468,4.742,-7.612,-1.846
1772933780938.9856,-0.0914,-0.0145,-0.9481,4.812,-7.157,-1.82
1772933780938.9856,-0.088,-0.0132,-0.9516,4.734,-6.694,-1.768
1772933780954.5645,-0.0911,-0.0128,-0.9539,4.664,-6.195,-1.978
1772933780954.5645,-0.0925,-0.0132,-0.9581,4.48,-5.836,-2.109
1772933780954.5645,-0.0902,-0.0147,-0.9616,4.34,-5.224,-2.257
1772933780954.5645,-0.0912,-0.0149,-0.9653,4.331,-5.232,-2.397
1772933780954.5645,-0.0888,-0.016,-0.9642,4.191,-4.987,-2.581
1772933780954.5645,-0.0894,-0.0171,-0.9672,3.929,-4.611,-2.231
1772933780954.5645,-0.0891,-0.0167,-0.9696,3.71,-4.384,-2.126
1772933780954.5645,-0.0904,-0.0156,-0.9704,3.465,-4.095,-2.249
1772933780954.5645,-0.0869,-0.0156,-0.9726,3.491,-4.095,-2.354
1772933780954.5645,-0.0897,-0.0161,-0.9748,3.237,-3.911,-2.161
1772933780954.5645,-0.0883,-0.0167,-0.9768,2.94,-3.535,-2.021
1772933780954.5645,-0.0877,-0.0182,-0.9759,2.678,-3.518,-2.301
1772933780954.5645,-0.0872,-0.0186,-0.9756,2.485,-3.535,-2.109
1772933780969.682,-0.0858,-0.021,-0.9784,2.231,-3.124,-1.925
1772933780969.682,-0.0851,-0.0198,-0.9779,2.004,-3.22,-1.82
1772933780969.682,-0.0856,-0.019,-0.9772,1.776,-3.211,-2.039
1772933780969.682,-0.0853,-0.0211,-0.9758,1.514,-3.194,-2.135
1772933780969.682,-0.0841,-0.0224,-0.9792,1.312,-3.045,-1.724
1772933780969.682,-0.0862,-0.0198,-0.9794,1.181,-3.255,-1.593
1772933780969.682,-0.0854,-0.0201,-0.9794,0.989,-3.334,-1.715
1772933780969.682,-0.0857,-0.0214,-0.978,0.831,-3.019,-1.566
1772933780969.682,-0.0845,-0.0221,-0.9749,0.84,-3.176,-1.627
1772933780969.682,-0.0834,-0.0228,-0.9784,0.866,-3.203,-1.584
1772933780969.682,-0.0861,-0.0219,-0.977,0.665,-2.817,-1.584
1772933780969.682,-0.0829,-0.0229,-0.9775,0.604,-2.958,-1.391
1772933780985.0312,-0.0851,-0.0235,-0.9771,0.525,-3.124,-1.26
1772933780985.0312,-0.085,-0.0213,-0.9773,0.324,-3.255,-1.409
1772933780985.0312,-0.0848,-0.0213,-0.9755,0.542,-3.045,-1.304
1772933780985.0312,-0.0864,-0.0223,-0.9762,0.49,-3.089,-1.304
1772933780985.0312,-0.0847,-0.0215,-0.977,0.525,-3.272,-1.426
1772933780985.0312,-0.0847,-0.0238,-0.9743,0.814,-3.631,-1.295
1772933780985.0312,-0.0864,-0.0214,-0.9775,0.744,-3.684,-1.339
1772933780985.0312,-0.0842,-0.0234,-0.9751,0.892,-3.561,-1.461
1772933780985.0312,-0.0833,-0.0233,-0.9747,0.892,-3.561,-1.435
1772933780985.0312,-0.083,-0.0228,-0.9775,1.146,-3.763,-1.216
1772933780985.0312,-0.0833,-0.0223,-0.9739,1.286,-3.789,-1.426
1772933780985.0312,-0.0823,-0.0242,-0.9748,1.496,-4.077,-1.435
1772933781000.807,-0.0812,-0.0226,-0.975,1.671,-4.13,-1.522
1772933781000.807,-0.0806,-0.022,-0.9748,1.811,-3.973,-1.732
1772933781000.807,-0.0806,-0.0227,-0.9748,2.03,-4.322,-1.575
1772933781000.807,-0.0804,-0.0229,-0.9759,2.231,-4.445,-1.593
1772933781000.807,-0.0818,-0.0201,-0.9755,2.223,-4.279,-1.522
1772933781000.807,-0.0822,-0.0232,-0.9742,2.572,-4.707,-1.409
1772933781000.807,-0.0808,-0.0228,-0.9812,2.721,-4.567,-1.488
1772933781000.807,-0.0802,-0.023,-0.9765,2.87,-4.445,-1.514
1772933781000.807,-0.079,-0.0243,-0.977,2.94,-4.786,-1.593
1772933781000.807,-0.0791,-0.0232,-0.978,3.115,-4.655,-1.452
1772933781000.807,-0.0798,-0.0228,-0.9778,3.141,-4.935,-1.61
1772933781000.807,-0.0788,-0.0242,-0.9794,3.22,-4.987,-1.409
1772933781000.807,-0.079,-0.0226,-0.9775,3.08,-4.987,-1.514
1772933781016.8787,-0.0787,-0.0218,-0.9765,3.255,-5.232,-1.347
1772933781016.8787,-0.0791,-0.0249,-0.9792,3.474,-5.276,-1.269
1772933781016.8787,-0.0772,-0.0234,-0.9755,3.518,-5.338,-1.269
1772933781016.8787,-0.0764,-0.0226,-0.9789,3.413,-5.346,-1.278
1772933781016.8787,-0.0767,-0.0226,-0.9793,3.395,-5.399,-1.164
1772933781016.8787,-0.0785,-0.0237,-0.9776,3.474,-5.425,-1.173
1772933781016.8787,-0.0783,-0.0224,-0.9764,3.439,-5.381,-1.251
1772933781016.8787,-0.0793,-0.0223,-0.9765,3.237,-5.399,-1.444
1772933781016.8787,-0.0802,-0.0231,-0.9754,3.203,-5.486,-1.295
1772933781016.8787,-0.0786,-0.0242,-0.9768,3.167,-5.355,-1.295
1772933781016.8787,-0.077,-0.0238,-0.9773,3.29,-5.609,-1.374
1772933781016.8787,-0.0801,-0.0236,-0.9768,3.299,-5.609,-1.426
1772933781016.8787,-0.0803,-0.0228,-0.9777,3.019,-5.32,-1.251
1772933781032.424,-0.082,-0.0247,-0.9769,2.861,-5.338,-1.278
1772933781032.424,-0.082,-0.0243,-0.9789,2.914,-5.32,-1.47
1772933781032.424,-0.081,-0.0257,-0.9781,3.106,-5.058,-1.312
1772933781032.424,-0.0809,-0.0246,-0.9786,2.896,-5.066,-1.312
1772933781032.424,-0.0845,-0.0254,-0.9761,2.791,-4.944,-1.444
1772933781032.424,-0.0824,-0.0263,-0.9778,2.993,-5.197,-1.417
1772933781032.424,-0.0838,-0.025,-0.9789,3.019,-5.066,-1.339
1772933781032.424,-0.0849,-0.0262,-0.9756,2.896,-4.996,-1.05
1772933781032.424,-0.0851,-0.0231,-0.979,3.062,-5.136,-1.12
1772933781032.424,-0.0841,-0.0257,-0.9786,2.87,-5.022,-1.391
1772933781032.424,-0.0858,-0.0262,-0.978,2.774,-4.987,-1.304
1772933781032.424,-0.0867,-0.0245,-0.9776,2.625,-4.629,-1.347
1772933781032.424,-0.0864,-0.0265,-0.9798,2.73,-4.489,-1.347
1772933781048.301,-0.0876,-0.028,-0.9812,2.853,-4.567,-1.383
1772933781048.301,-0.0878,-0.0281,-0.9795,2.678,-4.699,-1.383
1772933781048.301,-0.0901,-0.026,-0.9779,2.739,-4.463,-1.321
1772933781048.301,-0.0902,-0.0257,-0.9786,2.643,-4.515,-1.558
1772933781048.301,-0.0889,-0.0272,-0.979,2.511,-4.366,-1.68
1772933781048.301,-0.0894,-0.0279,-0.9778,2.529,-4.287,-1.671
1772933781048.301,-0.0908,-0.0285,-0.9773,2.678,-4.349,-1.698
1772933781048.301,-0.091,-0.0296,-0.9765,2.485,-4.104,-1.671
1772933781048.301,-0.0916,-0.0301,-0.9769,2.266,-3.99,-1.636
1772933781048.301,-0.0925,-0.0271,-0.9763,2.415,-4.139,-1.514
1772933781048.301,-0.0938,-0.0262,-0.9762,2.441,-3.859,-1.391
1772933781048.301,-0.0937,-0.0271,-0.9775,2.511,-3.981,-1.671
1772933781048.301,-0.0929,-0.028,-0.9769,2.301,-4.069,-1.645
1772933781063.5288,-0.0943,-0.0279,-0.9756,2.266,-4.2,-1.584
1772933781063.5288,-0.095,-0.0273,-0.9775,2.31,-3.955,-1.575
1772933781063.5288,-0.0941,-0.0275,-0.9758,2.354,-4.191,-1.33
1772933781063.5288,-0.096,-0.027,-0.9782,2.389,-4.235,-1.321
1772933781063.5288,-0.0939,-0.0267,-0.9781,2.214,-4.218,-1.549
1772933781063.5288,-0.096,-0.0273,-0.979,2.441,-4.06,-1.706
1772933781063.5288,-0.0967,-0.0268,-0.9751,2.502,-4.261,-1.671
1772933781063.5288,-0.0942,-0.0265,-0.9788,2.643,-4.489,-1.566
1772933781063.5288,-0.0958,-0.0255,-0.9779,2.572,-4.55,-1.54
1772933781063.5288,-0.0949,-0.0257,-0.9784,2.581,-4.629,-1.531
1772933781063.5288,-0.0941,-0.0223,-0.9799,2.669,-4.296,-1.619
1772933781063.5288,-0.0938,-0.0228,-0.9782,2.529,-4.393,-1.496
1772933781079.1099,-0.0946,-0.0242,-0.9772,3.019,-4.734,-1.522
1772933781079.1099,-0.0919,-0.0252,-0.9808,2.835,-4.436,-1.601
1772933781079.1099,-0.0934,-0.0254,-0.9789,2.835,-4.384,-1.584
1772933781079.1099,-0.091,-0.0243,-0.9806,2.826,-4.812,-1.566
1772933781079.1099,-0.0906,-0.0228,-0.9812,3.062,-4.935,-1.479
1772933781079.1099,-0.09,-0.0247,-0.9799,3.185,-4.76,-1.47
1772933781079.1099,-0.089,-0.0245,-0.9789,3.141,-4.891,-1.374
1772933781079.1099,-0.0872,-0.0262,-0.9782,3.369,-5.101,-1.417
1772933781079.1099,-0.0874,-0.0249,-0.9806,3.237,-5.119,-1.558
1772933781079.1099,-0.0881,-0.0257,-0.9806,3.456,-5.022,-1.496
1772933781079.1099,-0.0878,-0.026,-0.9817,3.447,-5.224,-1.304
1772933781079.1099,-0.0866,-0.0244,-0.9792,3.544,-5.232,-1.488
1772933781079.1099,-0.0863,-0.0252,-0.9802,3.491,-5.171,-1.347
1772933781095.1501,-0.0839,-0.0262,-0.9789,3.623,-5.215,-1.4
1772933781095.1501,-0.0851,-0.0229,-0.9792,3.666,-5.154,-1.689
1772933781095.1501,-0.0837,-0.0253,-0.9787,3.587,-5.04,-1.785
1772933781095.1501,-0.0833,-0.0248,-0.9775,3.413,-4.961,-1.593
1772933781095.1501,-0.084,-0.0257,-0.9774,3.544,-5.162,-1.558
1772933781095.1501,-0.0818,-0.0247,-0.9748,3.456,-5.145,-1.356
1772933781095.1501,-0.0808,-0.025,-0.9784,3.614,-4.926,-1.54
1772933781095.1501,-0.0813,-0.0241,-0.9764,3.596,-5.128,-1.566
1772933781095.1501,-0.0831,-0.0262,-0.9768,3.623,-5.04,-1.409
1772933781095.1501,-0.0811,-0.0262,-0.9739,3.885,-5.014,-1.426
1772933781095.1501,-0.0836,-0.0251,-0.9733,3.78,-4.944,-1.776
1772933781095.1501,-0.0813,-0.0252,-0.9761,3.579,-5.075,-1.619
1772933781095.1501,-0.0852,-0.027,-0.9744,3.535,-4.935,-1.768
1772933781110.6758,-0.0841,-0.025,-0.9743,3.614,-4.664,-1.654
1772933781110.6758,-0.0841,-0.027,-0.9734,3.806,-4.769,-1.531
1772933781110.6758,-0.0847,-0.0264,-0.9689,3.692,-5.058,-1.514
1772933781110.6758,-0.0856,-0.0271,-0.9715,3.518,-4.804,-1.496
1772933781110.6758,-0.0843,-0.0275,-0.9703,3.491,-4.725,-1.829
1772933781110.6758,-0.086,-0.0288,-0.9676,3.736,-4.638,-1.837
1772933781110.6758,-0.0867,-0.0304,-0.971,3.658,-4.541,-1.61
1772933781110.6758,-0.0866,-0.0287,-0.9699,3.255,-4.322,-1.627
1772933781110.6758,-0.0861,-0.0279,-0.9698,3.334,-4.314,-1.522
1772933781110.6758,-0.0887,-0.0292,-0.9683,3.132,-4.357,-1.549
1772933781110.6758,-0.0892,-0.0305,-0.97,2.993,-4.349,-1.461
1772933781110.6758,-0.0903,-0.0276,-0.9697,3.01,-4.419,-1.54
1772933781126.2463,-0.0912,-0.0294,-0.9731,2.704,-4.235,-1.531
1772933781126.2463,-0.0903,-0.0302,-0.9717,2.66,-4.445,-1.496
1772933781126.2463,-0.0885,-0.0287,-0.972,2.643,-4.121,-1.645
1772933781126.2463,-0.0899,-0.0303,-0.9737,2.485,-4.191,-1.627
1772933781126.2463,-0.09,-0.0292,-0.9734,2.494,-4.41,-1.584
1772933781126.2463,-0.0899,-0.0303,-0.9732,2.389,-4.41,-1.479
1772933781126.2463,-0.09,-0.029,-0.973,2.056,-4.349,-1.391
1772933781126.2463,-0.0884,-0.0272,-0.9749,2.004,-4.104,-1.199
1772933781126.2463,-0.0881,-0.0293,-0.9734,2.03,-4.393,-1.067
1772933781126.2463,-0.09,-0.0325,-0.9773,2.109,-4.454,-1.199
1772933781126.2463,-0.0887,-0.0296,-0.9767,1.864,-4.463,-1.251
1772933781126.2463,-0.0875,-0.0295,-0.9769,2.231,-4.585,-1.173
1772933781126.2463,-0.0864,-0.0284,-0.9784,2.231,-4.716,-1.164
1772933781142.0845,-0.0873,-0.0276,-0.9765,2.135,-4.48,-1.251
1772933781142.0845,-0.0861,-0.0281,-0.9781,1.829,-4.567,-1.103
1772933781142.0845,-0.0867,-0.0268,-0.9779,1.951,-4.646,-1.26
1772933781142.0845,-0.0852,-0.0246,-0.9787,2.118,-4.524,-1.015
1772933781142.0845,-0.0843,-0.0245,-0.9789,2.1,-4.681,-1.155
1772933781142.0845,-0.0884,-0.0249,-0.9787,2.091,-4.812,-1.208
1772933781142.0845,-0.0838,-0.0257,-0.9803,2.257,-4.751,-1.094
1772933781142.0845,-0.0855,-0.0231,-0.9817,2.415,-4.848,-0.945
1772933781142.0845,-0.0855,-0.0226,-0.982,2.502,-4.769,-1.164
1772933781142.0845,-0.0845,-0.0218,-0.9792,2.73,-4.97,-1.137
1772933781142.0845,-0.0854,-0.0221,-0.9814,2.756,-4.97,-1.304
1772933781142.0845,-0.0869,-0.0218,-0.9775,2.879,-4.83,-1.347
1772933781142.0845,-0.0866,-0.0215,-0.9801,3.01,-4.839,-1.452
1772933781156.8748,-0.0847,-0.0226,-0.9819,3.071,-4.638,-1.286
1772933781156.8748,-0.0857,-0.0234,-0.9811,3.229,-4.769,-1.374
1772933781156.8748,-0.0848,-0.023,-0.9823,3.351,-4.777,-1.479
1772933781156.8748,-0.0872,-0.023,-0.9839,3.474,-4.804,-1.47
1772933781156.8748,-0.0852,-0.0236,-0.9795,3.535,-4.603,-1.68
1772933781156.8748,-0.0869,-0.024,-0.9844,3.841,-4.69,-1.627
1772933781156.8748,-0.086,-0.0222,-0.981,3.57,-4.611,-1.785
1772933781156.8748,-0.0883,-0.0237,-0.9846,3.85,-4.585,-1.636
1772933781156.8748,-0.0856,-0.0254,-0.9834,4.095,-4.742,-1.522
1772933781156.8748,-0.0842,-0.023,-0.9844,4.244,-5.005,-1.645
1772933781156.8748,-0.0857,-0.0268,-0.987,4.025,-4.716,-1.549
1772933781156.8748,-0.0874,-0.0257,-0.9867,4.2,-4.69,-1.575
1772933781173.2683,-0.0857,-0.027,-0.9862,4.331,-4.839,-1.383
1772933781173.2683,-0.0852,-0.0269,-0.9865,4.436,-4.987,-1.68
1772933781173.2683,-0.0845,-0.0286,-0.987,4.357,-4.681,-1.374
1772933781173.2683,-0.0834,-0.0282,-0.9877,4.673,-5.005,-1.496
1772933781173.2683,-0.0836,-0.0287,-0.9871,4.751,-5.04,-1.522
1772933781173.2683,-0.0814,-0.0282,-0.9881,4.532,-5.119,-1.444
1772933781173.2683,-0.0825,-0.0282,-0.9862,4.891,-4.987,-1.409
1772933781173.2683,-0.0834,-0.0294,-0.986,4.707,-5.066,-1.208
1772933781173.2683,-0.0827,-0.0282,-0.9855,4.629,-5.206,-1.251
1772933781173.2683,-0.0834,-0.0323,-0.989,4.742,-5.495,-1.347
1772933781173.2683,-0.0827,-0.0287,-0.9859,4.918,-5.53,-1.155
1772933781173.2683,-0.0838,-0.0294,-0.9878,4.961,-5.338,-1.146
1772933781173.2683,-0.0814,-0.0289,-0.9873,4.987,-5.425,-1.208
1772933781188.3098,-0.0809,-0.0295,-0.9875,4.935,-5.478,-1.173
1772933781188.3098,-0.0819,-0.0278,-0.986,4.707,-5.407,-1.173
1772933781188.3098,-0.081,-0.0296,-0.9848,4.891,-5.276,-1.015
1772933781188.3098,-0.0827,-0.0292,-0.985,4.952,-5.303,-0.814
1772933781188.3098,-0.0815,-0.0287,-0.986,4.734,-5.338,-0.849
1772933781188.3098,-0.0825,-0.0303,-0.9862,4.681,-5.696,-0.892
1772933781188.3098,-0.0818,-0.0289,-0.9839,4.603,-6.204,-0.927
1772933781188.3098,-0.0812,-0.0271,-0.9859,4.576,-5.959,-1.05
1772933781188.3098,-0.0805,-0.0295,-0.9865,4.707,-5.827,-0.927
1772933781188.3098,-0.081,-0.0285,-0.9827,4.55,-6.046,-0.91
1772933781188.3098,-0.08,-0.0289,-0.9844,4.699,-6.081,-1.015
1772933781188.3098,-0.0792,-0.0254,-0.9831,4.559,-6.195,-0.901
1772933781203.8208,-0.082,-0.0269,-0.983,4.611,-6.134,-1.067
1772933781203.8208,-0.083,-0.0257,-0.9823,4.419,-5.889,-0.901
1772933781203.8208,-0.0809,-0.0266,-0.9817,4.463,-6.125,-0.927
1772933781203.8208,-0.0816,-0.0244,-0.9823,4.541,-6.213,-1.173
1772933781203.8208,-0.0798,-0.0241,-0.9822,4.428,-6.265,-1.242
1772933781203.8208,-0.0809,-0.0255,-0.9834,4.34,-6.317,-1.181
1772933781203.8208,-0.0799,-0.0264,-0.9816,4.244,-6.344,-1.26
1772933781203.8208,-0.0806,-0.024,-0.9808,4.253,-6.125,-1.137
1772933781203.8208,-0.0816,-0.0242,-0.979,4.34,-6.317,-1.173
1772933781203.8208,-0.08,-0.0245,-0.9812,4.279,-6.527,-1.225
1772933781203.8208,-0.0799,-0.0239,-0.982,4.069,-6.326,-1.347
1772933781203.8208,-0.0791,-0.024,-0.9813,3.902,-6.274,-1.409
1772933781203.8208,-0.082,-0.024,-0.9803,3.833,-5.985,-1.155
1772933781218.915,-0.0823,-0.0221,-0.9811,3.999,-6.169,-1.278
1772933781218.915,-0.0802,-0.0223,-0.9806,3.789,-6.388,-1.479
1772933781218.915,-0.082,-0.0223,-0.976,3.736,-6.204,-1.575
1772933781218.915,-0.0798,-0.0262,-0.9765,3.631,-6.037,-1.286
1772933781218.915,-0.0794,-0.0248,-0.9798,3.666,-6.274,-1.321
1772933781218.915,-0.0802,-0.022,-0.9785,3.5,-6.23,-1.689
1772933781218.915,-0.0816,-0.0234,-0.9792,3.447,-6.125,-1.365
1772933781218.915,-0.0789,-0.0241,-0.9809,3.447,-6.081,-1.496
1772933781218.915,-0.0799,-0.0251,-0.9772,3.299,-6.09,-1.417
1772933781218.915,-0.0802,-0.0243,-0.9789,3.439,-6.335,-1.304
1772933781218.915,-0.0794,-0.0243,-0.9786,3.36,-6.02,-1.26
1772933781218.915,-0.0786,-0.0247,-0.9786,3.036,-5.976,-1.059
1772933781234.707,-0.0805,-0.0242,-0.9779,3.01,-5.862,-1.251
1772933781234.707,-0.0797,-0.023,-0.9769,3.001,-5.74,-1.137
1772933781234.707,-0.0773,-0.0211,-0.9771,2.774,-5.933,-1.286
1772933781234.707,-0.0778,-0.0222,-0.9772,2.931,-5.827,-1.173
1772933781234.707,-0.0784,-0.0229,-0.9758,2.931,-6.116,-1.47
1772933781234.707,-0.0817,-0.0197,-0.9755,2.809,-6.09,-1.461
1772933781234.707,-0.08,-0.0206,-0.9773,2.958,-5.862,-1.4
1772933781234.707,-0.0785,-0.0184,-0.9758,2.896,-5.906,-1.321
1772933781234.707,-0.079,-0.0187,-0.976,3.045,-5.915,-1.339
1772933781234.707,-0.0783,-0.0189,-0.9773,3.15,-5.985,-1.391
1772933781234.707,-0.0781,-0.0184,-0.9772,3.062,-5.688,-1.417
1772933781234.707,-0.0799,-0.0192,-0.9779,3.386,-6.081,-1.417
1772933781234.707,-0.0786,-0.0164,-0.9752,3.395,-6.239,-1.531
1772933781249.8948,-0.0781,-0.0174,-0.9775,3.342,-5.836,-1.558
1772933781249.8948,-0.0784,-0.0193,-0.9764,3.474,-5.95,-1.566
1772933781249.8948,-0.0784,-0.0209,-0.9728,3.614,-6.046,-1.689
1772933781249.8948,-0.0798,-0.0186,-0.9736,3.561,-5.696,-1.435
1772933781249.8948,-0.0792,-0.0199,-0.9729,3.561,-5.827,-1.496
1772933781249.8948,-0.0802,-0.0219,-0.973,3.474,-5.749,-1.374
1772933781249.8948,-0.0823,-0.0194,-0.9695,3.728,-5.749,-1.286
