Time_ms,ax,ay,az
1772931083678.7568,0.055,-0.6284,-0.7532
1772931083678.7568,0.0536,-0.6282,-0.7543
1772931083678.7568,0.0529,-0.6295,-0.7554
1772931083678.7568,0.0519,-0.6281,-0.7542
1772931083693.7312,0.0498,-0.6306,-0.7518
1772931083693.7312,0.0518,-0.6287,-0.7521
1772931083693.7312,0.0509,-0.6279,-0.7529
1772931083693.7312,0.0543,-0.6282,-0.7529
1772931083693.7312,0.0519,-0.6298,-0.7534
1772931083693.7312,0.053,-0.6287,-0.7508
1772931083693.7312,0.0517,-0.6258,-0.7538
1772931083693.7312,0.0522,-0.6277,-0.7507
1772931083708.789,0.0505,-0.6289,-0.7502
1772931083708.789,0.0539,-0.6283,-0.7513
1772931083708.789,0.0525,-0.6263,-0.7521
1772931083708.789,0.0512,-0.6289,-0.7504
1772931083708.789,0.0508,-0.626,-0.7537
1772931083708.789,0.0497,-0.6272,-0.7539
1772931083708.789,0.0487,-0.6279,-0.7522
1772931083708.789,0.0515,-0.6276,-0.7516
1772931083724.3438,0.0483,-0.6309,-0.7495
1772931083724.3438,0.0482,-0.638,-0.7559
1772931083724.3438,0.0542,-0.6234,-0.757
1772931083724.3438,0.0497,-0.6154,-0.7609
1772931083724.3438,0.0515,-0.6162,-0.7547
1772931083724.3438,0.0485,-0.6209,-0.7496
1772931083739.676,0.0499,-0.6214,-0.7495
1772931083739.676,0.0483,-0.6256,-0.7523
1772931083739.676,0.0496,-0.6273,-0.7542
1772931083739.676,0.0471,-0.6263,-0.7532
1772931083739.676,0.0501,-0.6287,-0.7519
1772931083739.676,0.0481,-0.6265,-0.7541
1772931083739.676,0.0492,-0.626,-0.7556
1772931083739.676,0.0478,-0.6256,-0.7541
1772931083755.791,0.0461,-0.6243,-0.7543
1772931083755.791,0.0476,-0.6242,-0.7562
1772931083755.791,0.0441,-0.627,-0.7532
1772931083755.791,0.047,-0.6261,-0.7548
1772931083755.791,0.0463,-0.6248,-0.7542
1772931083755.791,0.0484,-0.6263,-0.7543
1772931083755.791,0.0465,-0.6255,-0.7529
1772931083755.791,0.0501,-0.6294,-0.7563
1772931083771.4116,0.0457,-0.6274,-0.7538
1772931083771.4116,0.0487,-0.6271,-0.7556
1772931083771.4116,0.0473,-0.6271,-0.7554
1772931083771.4116,0.0512,-0.6288,-0.7546
1772931083771.4116,0.0498,-0.6276,-0.7546
1772931083771.4116,0.0496,-0.6268,-0.752
1772931083771.4116,0.047,-0.6264,-0.7549
1772931083771.4116,0.0498,-0.6268,-0.754
1772931083786.8845,0.0506,-0.6249,-0.7517
1772931083786.8845,0.0484,-0.6255,-0.7538
1772931083786.8845,0.0475,-0.626,-0.7541
1772931083786.8845,0.0483,-0.6267,-0.7537
1772931083786.8845,0.0467,-0.6267,-0.7526
1772931083786.8845,0.0483,-0.6263,-0.7542
1772931083786.8845,0.048,-0.6262,-0.7531
1772931083786.8845,0.0482,-0.6263,-0.7508
1772931083802.4685,0.0498,-0.6282,-0.7515
1772931083802.4685,0.0499,-0.626,-0.7509
1772931083802.4685,0.0478,-0.6264,-0.7527
1772931083802.4685,0.0502,-0.6261,-0.7526
1772931083802.4685,0.0487,-0.6243,-0.7497
1772931083817.9377,0.0486,-0.6263,-0.7501
1772931083817.9377,0.0511,-0.6264,-0.7495
1772931083817.9377,0.0484,-0.6257,-0.7477
1772931083817.9377,0.0495,-0.6262,-0.7507
1772931083817.9377,0.0481,-0.6262,-0.7493
1772931083817.9377,0.0519,-0.6276,-0.7481
1772931083817.9377,0.0502,-0.6293,-0.7483
1772931083817.9377,0.05,-0.6279,-0.748
1772931083833.5706,0.0504,-0.6284,-0.7476
1772931083833.5706,0.0486,-0.6271,-0.749
1772931083833.5706,0.0504,-0.628,-0.7502
1772931083833.5706,0.0482,-0.6265,-0.7523
1772931083833.5706,0.0485,-0.6268,-0.7503
1772931083833.5706,0.047,-0.6269,-0.7508
1772931083833.5706,0.0476,-0.6265,-0.7504
1772931083833.5706,0.0458,-0.6263,-0.7505
1772931083849.4353,0.0477,-0.6268,-0.753
1772931083849.4353,0.0472,-0.6281,-0.7518
1772931083849.4353,0.0476,-0.6274,-0.7517
1772931083849.4353,0.0477,-0.6274,-0.7505
1772931083849.4353,0.0479,-0.6271,-0.7507
1772931083849.4353,0.0491,-0.629,-0.7493
1772931083849.4353,0.05,-0.6268,-0.7496
1772931083849.4353,0.052,-0.6271,-0.7501
1772931083865.554,0.0517,-0.6307,-0.7498
1772931083865.554,0.0514,-0.6304,-0.7514
1772931083865.554,0.0525,-0.6301,-0.7494
1772931083865.554,0.0534,-0.629,-0.7499
1772931083865.554,0.0526,-0.628,-0.7508
1772931083865.554,0.0501,-0.6288,-0.7512
1772931083865.554,0.0493,-0.6288,-0.7543
1772931083865.554,0.0495,-0.6281,-0.7565
1772931083880.6858,0.0488,-0.6321,-0.7511
1772931083880.6858,0.0478,-0.6285,-0.7518
1772931083880.6858,0.0461,-0.6284,-0.751
1772931083880.6858,0.0464,-0.6315,-0.7529
1772931083880.6858,0.0475,-0.6298,-0.753
1772931083880.6858,0.0475,-0.6305,-0.7509
1772931083880.6858,0.0481,-0.6301,-0.7543
1772931083880.6858,0.0485,-0.6264,-0.7508
1772931083896.2683,0.0479,-0.6287,-0.7536
1772931083896.2683,0.0484,-0.6273,-0.7543
1772931083896.2683,0.0487,-0.6267,-0.7538
1772931083896.2683,0.0488,-0.6296,-0.7529
1772931083896.2683,0.0493,-0.6276,-0.7515
1772931083911.4702,0.0487,-0.6282,-0.7531
1772931083911.4702,0.0495,-0.6284,-0.7505
1772931083911.4702,0.0487,-0.6267,-0.754
1772931083911.4702,0.047,-0.6305,-0.7509
1772931083911.4702,0.0497,-0.6295,-0.7492
1772931083911.4702,0.0474,-0.6285,-0.749
1772931083911.4702,0.0489,-0.629,-0.7506
1772931083911.4702,0.0465,-0.6272,-0.7502
1772931083927.2979,0.0462,-0.629,-0.7509
1772931083927.2979,0.0463,-0.628,-0.7509
1772931083927.2979,0.0476,-0.6286,-0.7496
1772931083927.2979,0.0465,-0.6288,-0.7508
1772931083927.2979,0.0473,-0.6278,-0.749
1772931083927.2979,0.0517,-0.6294,-0.7454
1772931083927.2979,0.0504,-0.626,-0.7448
1772931083927.2979,0.0513,-0.6274,-0.7476
1772931083942.6956,0.0503,-0.6283,-0.7484
1772931083942.6956,0.0499,-0.6279,-0.7471
1772931083942.6956,0.0493,-0.6278,-0.7479
1772931083942.6956,0.0484,-0.6307,-0.7489
1772931083942.6956,0.0493,-0.6295,-0.7513
1772931083942.6956,0.047,-0.6285,-0.7503
1772931083942.6956,0.0447,-0.6287,-0.7516
1772931083942.6956,0.0451,-0.626,-0.7507
1772931083957.8853,0.0461,-0.6281,-0.7512
1772931083957.8853,0.0465,-0.6273,-0.7501
1772931083957.8853,0.0453,-0.626,-0.7501
1772931083957.8853,0.0434,-0.6268,-0.751
1772931083957.8853,0.0429,-0.6275,-0.7512
1772931083957.8853,0.0438,-0.6255,-0.7519
1772931083973.0916,0.0461,-0.6284,-0.7502
1772931083973.0916,0.0435,-0.6272,-0.7518
1772931083973.0916,0.0439,-0.6282,-0.7507
1772931083973.0916,0.0425,-0.6274,-0.7488
1772931083973.0916,0.0414,-0.6278,-0.7505
1772931083973.0916,0.0439,-0.6272,-0.7507
1772931083973.0916,0.0436,-0.6276,-0.7508
1772931083973.0916,0.0437,-0.6287,-0.7501
1772931083988.9333,0.0448,-0.6283,-0.7482
1772931083988.9333,0.0447,-0.6285,-0.75
1772931083988.9333,0.0441,-0.6271,-0.7499
1772931083988.9333,0.0458,-0.628,-0.7477
1772931083988.9333,0.0438,-0.6277,-0.7507
1772931083988.9333,0.0466,-0.6279,-0.7507
1772931083988.9333,0.0462,-0.6276,-0.7515
1772931083988.9333,0.045,-0.6261,-0.7515
1772931084004.066,0.0445,-0.6273,-0.7512
1772931084004.066,0.0422,-0.6265,-0.7641
1772931084004.066,0.0447,-0.6259,-0.7518
1772931084004.066,0.0436,-0.626,-0.748
1772931084004.066,0.049,-0.6255,-0.7457
1772931084004.066,0.0473,-0.6262,-0.7456
1772931084004.066,0.0508,-0.6257,-0.746
1772931084004.066,0.0489,-0.6282,-0.7474
1772931084019.6245,0.0497,-0.6271,-0.7465
1772931084019.6245,0.0453,-0.6285,-0.7454
1772931084019.6245,0.0434,-0.6328,-0.7453
1772931084019.6245,0.0443,-0.6322,-0.746
1772931084019.6245,0.0409,-0.6317,-0.7467
1772931084019.6245,0.0422,-0.6314,-0.7458
1772931084019.6245,0.0387,-0.6303,-0.7482
1772931084019.6245,0.0389,-0.6313,-0.7487
1772931084034.8096,0.0387,-0.6332,-0.7476
1772931084034.8096,0.0379,-0.632,-0.7494
1772931084034.8096,0.0377,-0.632,-0.748
1772931084034.8096,0.0392,-0.6317,-0.7473
1772931084034.8096,0.0411,-0.6312,-0.7475
1772931084050.4133,0.0418,-0.631,-0.7475
1772931084050.4133,0.0438,-0.6309,-0.7457
1772931084050.4133,0.0442,-0.6322,-0.7485
1772931084050.4133,0.0479,-0.6303,-0.7449
1772931084050.4133,0.0457,-0.6337,-0.7462
1772931084050.4133,0.0467,-0.6314,-0.7452
1772931084050.4133,0.0453,-0.6331,-0.7476
1772931084050.4133,0.0489,-0.6309,-0.7468
1772931084065.8987,0.0475,-0.632,-0.7472
1772931084065.8987,0.0476,-0.6346,-0.7458
1772931084065.8987,0.0502,-0.6323,-0.7446
1772931084065.8987,0.0473,-0.6378,-0.7491
1772931084065.8987,0.0335,-0.6202,-0.7544
1772931084065.8987,0.0462,-0.6151,-0.753
1772931084065.8987,0.0432,-0.6353,-0.733
1772931084065.8987,0.0448,-0.637,-0.7419
1772931084081.4497,0.0451,-0.6319,-0.7521
1772931084081.4497,0.0447,-0.6309,-0.7497
1772931084081.4497,0.0485,-0.6201,-0.7479
1772931084081.4497,0.0467,-0.6254,-0.7456
1772931084081.4497,0.0495,-0.6322,-0.7435
1772931084081.4497,0.0483,-0.6328,-0.7487
1772931084081.4497,0.0487,-0.6317,-0.7523
1772931084081.4497,0.0457,-0.6288,-0.7501
1772931084096.6035,0.044,-0.6279,-0.7437
1772931084096.6035,0.0454,-0.6245,-0.7485
1772931084096.6035,0.0464,-0.6377,-0.7379
1772931084096.6035,0.0513,-0.6354,-0.7498
1772931084096.6035,0.0485,-0.6295,-0.7496
1772931084111.7512,0.0495,-0.6409,-0.7443
1772931084111.7512,0.0501,-0.6418,-0.7444
1772931084111.7512,0.0503,-0.6285,-0.7468
1772931084111.7512,0.05,-0.6309,-0.7466
1772931084111.7512,0.049,-0.6355,-0.7419
1772931084111.7512,0.0495,-0.6349,-0.7421
1772931084111.7512,0.052,-0.6347,-0.743
1772931084111.7512,0.0526,-0.6322,-0.7443
1772931084126.5227,0.0523,-0.6281,-0.7444
1772931084126.5227,0.0487,-0.6289,-0.7447
1772931084126.5227,0.0503,-0.6285,-0.7436
1772931084126.5227,0.0483,-0.6283,-0.7422
1772931084126.5227,0.0502,-0.6315,-0.7397
1772931084126.5227,0.049,-0.6301,-0.7433
1772931084126.5227,0.0462,-0.6274,-0.7495
1772931084126.5227,0.0455,-0.6263,-0.7555
1772931084141.9507,0.0513,-0.6285,-0.7618
1772931084141.9507,0.0628,-0.6322,-0.7705
1772931084141.9507,0.0362,-0.6343,-0.7613
1772931084141.9507,0.0256,-0.6322,-0.7559
1772931084141.9507,0.0231,-0.6226,-0.7535
1772931084141.9507,0.0278,-0.6211,-0.7618
1772931084141.9507,0.0292,-0.6199,-0.7693
1772931084141.9507,0.034,-0.617,-0.7715
1772931084157.5554,0.039,-0.6152,-0.7715
1772931084157.5554,0.0403,-0.6166,-0.7657
1772931084157.5554,0.0444,-0.6234,-0.771
1772931084157.5554,0.0506,-0.6278,-0.7715
1772931084157.5554,0.0533,-0.6308,-0.7727
1772931084157.5554,0.0565,-0.6326,-0.7681
1772931084173.3315,0.0619,-0.635,-0.7596
1772931084173.3315,0.0642,-0.6385,-0.7546
1772931084173.3315,0.0661,-0.6382,-0.7502
1772931084173.3315,0.0647,-0.6383,-0.7448
1772931084173.3315,0.0629,-0.6346,-0.7424
1772931084173.3315,0.0604,-0.6347,-0.7408
1772931084173.3315,0.0562,-0.6317,-0.7393
1772931084173.3315,0.0536,-0.6322,-0.7398
1772931084188.889,0.0502,-0.631,-0.7393
1772931084188.889,0.0486,-0.6325,-0.7358
1772931084188.889,0.051,-0.6375,-0.7319
1772931084188.889,0.0479,-0.6373,-0.7323
1772931084188.889,0.0478,-0.641,-0.7305
1772931084188.889,0.046,-0.6409,-0.7303
1772931084188.889,0.0465,-0.6401,-0.7275
1772931084188.889,0.0414,-0.6397,-0.7305
1772931084204.5115,0.0411,-0.6378,-0.7288
1772931084204.5115,0.0377,-0.6343,-0.7287
1772931084204.5115,0.0359,-0.6359,-0.732
1772931084204.5115,0.0349,-0.6371,-0.7332
1772931084204.5115,0.0333,-0.6361,-0.7366
1772931084204.5115,0.0331,-0.637,-0.7382
1772931084204.5115,0.0324,-0.6337,-0.7442
1772931084204.5115,0.0303,-0.6335,-0.7441
1772931084220.072,0.0305,-0.6322,-0.7449
1772931084220.072,0.0314,-0.6302,-0.7452
1772931084220.072,0.0307,-0.6288,-0.7478
1772931084220.072,0.0334,-0.628,-0.7493
1772931084220.072,0.0343,-0.6286,-0.7519
1772931084220.072,0.0402,-0.6306,-0.7531
1772931084220.072,0.04,-0.6314,-0.7563
1772931084220.072,0.042,-0.6301,-0.7555
1772931084235.6648,0.0454,-0.6332,-0.7591
1772931084235.6648,0.0479,-0.6326,-0.7584
1772931084235.6648,0.0477,-0.6325,-0.7604
1772931084235.6648,0.0503,-0.6325,-0.762
1772931084235.6648,0.0511,-0.6308,-0.7604
1772931084251.1902,0.052,-0.6323,-0.7636
1772931084251.1902,0.0544,-0.6306,-0.7638
1772931084251.1902,0.055,-0.629,-0.7585
1772931084251.1902,0.057,-0.6289,-0.7608
1772931084251.1902,0.0597,-0.6282,-0.7568
1772931084251.1902,0.064,-0.6246,-0.7577
1772931084251.1902,0.0608,-0.6253,-0.7564
1772931084251.1902,0.0661,-0.6248,-0.7542
1772931084266.3237,0.0657,-0.6246,-0.7527
1772931084266.3237,0.0629,-0.6243,-0.7503
1772931084266.3237,0.0614,-0.6276,-0.7529
1772931084266.3237,0.0574,-0.6268,-0.7516
1772931084266.3237,0.0568,-0.6299,-0.7494
1772931084266.3237,0.0562,-0.6335,-0.7516
1772931084266.3237,0.0553,-0.6353,-0.7524
1772931084266.3237,0.0515,-0.6373,-0.7535
1772931084281.7244,0.0504,-0.6378,-0.7522
1772931084281.7244,0.0506,-0.6375,-0.753
1772931084281.7244,0.0453,-0.6366,-0.7546
1772931084281.7244,0.0468,-0.6375,-0.7518
1772931084281.7244,0.0429,-0.6376,-0.7534
1772931084281.7244,0.0433,-0.6384,-0.7527
1772931084281.7244,0.0435,-0.6369,-0.7524
1772931084281.7244,0.0427,-0.6381,-0.7521
1772931084297.3635,0.0422,-0.6369,-0.7526
1772931084297.3635,0.0427,-0.6348,-0.7497
1772931084297.3635,0.0449,-0.6344,-0.7496
1772931084297.3635,0.0427,-0.637,-0.749
1772931084297.3635,0.0443,-0.6357,-0.7488
1772931084297.3635,0.0432,-0.6342,-0.7477
1772931084297.3635,0.0457,-0.631,-0.746
1772931084297.3635,0.0445,-0.6307,-0.7443
1772931084313.0596,0.0465,-0.6302,-0.7451
1772931084313.0596,0.0434,-0.6296,-0.746
1772931084313.0596,0.0431,-0.6288,-0.7426
1772931084313.0596,0.0431,-0.6284,-0.7444
1772931084313.0596,0.045,-0.6281,-0.7435
1772931084328.627,0.0442,-0.6268,-0.7414
1772931084328.627,0.0436,-0.6282,-0.7419
1772931084328.627,0.0439,-0.625,-0.7421
1772931084328.627,0.044,-0.6217,-0.7411
1772931084328.627,0.0423,-0.6204,-0.7429
1772931084328.627,0.0442,-0.6196,-0.7465
1772931084328.627,0.0431,-0.6204,-0.7429
1772931084328.627,0.0443,-0.6204,-0.7451
1772931084343.6887,0.044,-0.6193,-0.7435
1772931084343.6887,0.0462,-0.6196,-0.7449
1772931084343.6887,0.0459,-0.6226,-0.7426
1772931084343.6887,0.0472,-0.6204,-0.7442
1772931084343.6887,0.0476,-0.6209,-0.7466
1772931084343.6887,0.0512,-0.6217,-0.7457
1772931084343.6887,0.0474,-0.6211,-0.7435
1772931084343.6887,0.0482,-0.6215,-0.7446
1772931084359.7412,0.0454,-0.622,-0.7457
1772931084359.7412,0.0622,-0.6231,-0.7512
1772931084359.7412,0.0446,-0.6223,-0.7502
1772931084359.7412,0.0429,-0.6211,-0.7529
1772931084359.7412,0.0418,-0.6218,-0.7544
1772931084359.7412,0.0422,-0.6218,-0.7563
1772931084359.7412,0.0408,-0.624,-0.7551
1772931084359.7412,0.0456,-0.6263,-0.7523
1772931084375.5095,0.0493,-0.6286,-0.7567
1772931084375.5095,0.0522,-0.628,-0.7519
1772931084375.5095,0.0553,-0.6272,-0.7496
1772931084375.5095,0.053,-0.6236,-0.7493
1772931084375.5095,0.0506,-0.6253,-0.7502
1772931084375.5095,0.0465,-0.6247,-0.7502
1772931084375.5095,0.0465,-0.6255,-0.7505
1772931084375.5095,0.045,-0.6272,-0.7486
1772931084390.2458,0.0423,-0.6256,-0.7497
1772931084390.2458,0.0431,-0.6299,-0.7493
1772931084390.2458,0.0405,-0.632,-0.7494
1772931084390.2458,0.0429,-0.632,-0.7494
1772931084390.2458,0.0423,-0.6344,-0.7502
1772931084390.2458,0.0436,-0.6333,-0.7541
1772931084405.8647,0.0412,-0.6343,-0.7528
1772931084405.8647,0.0407,-0.6346,-0.7511
1772931084405.8647,0.0403,-0.6342,-0.7508
1772931084405.8647,0.0417,-0.635,-0.7518
1772931084405.8647,0.0442,-0.6339,-0.7494
1772931084405.8647,0.0426,-0.6312,-0.7513
1772931084405.8647,0.0434,-0.6344,-0.7496
1772931084405.8647,0.0457,-0.6331,-0.7513
1772931084421.7458,0.045,-0.6324,-0.7518
1772931084421.7458,0.0447,-0.6362,-0.7541
1772931084421.7458,0.045,-0.6354,-0.7513
1772931084421.7458,0.0425,-0.6352,-0.7555
1772931084421.7458,0.0436,-0.6362,-0.7542
1772931084421.7458,0.0429,-0.6359,-0.7563
1772931084421.7458,0.0427,-0.6348,-0.7542
1772931084421.7458,0.0443,-0.6357,-0.7565
1772931084437.1567,0.0457,-0.6346,-0.753
1772931084437.1567,0.0456,-0.6354,-0.7541
1772931084437.1567,0.0445,-0.6352,-0.7521
1772931084437.1567,0.0457,-0.6335,-0.7547
1772931084437.1567,0.0491,-0.6349,-0.7495
1772931084437.1567,0.0472,-0.6324,-0.7512
1772931084437.1567,0.0464,-0.6321,-0.7498
1772931084437.1567,0.047,-0.6307,-0.7504
1772931084452.7725,0.0466,-0.63,-0.7476
1772931084452.7725,0.0458,-0.6281,-0.7496
1772931084452.7725,0.0462,-0.6272,-0.752
1772931084452.7725,0.049,-0.6273,-0.7499
1772931084452.7725,0.0489,-0.6274,-0.7509
1772931084452.7725,0.0486,-0.6262,-0.75
1772931084452.7725,0.048,-0.6284,-0.7513
1772931084452.7725,0.0484,-0.6271,-0.7525
1772931084468.7632,0.0494,-0.6287,-0.7491
1772931084468.7632,0.052,-0.6276,-0.7512
1772931084468.7632,0.0497,-0.6277,-0.7503
1772931084468.7632,0.0491,-0.6268,-0.75
1772931084468.7632,0.0503,-0.6293,-0.7495
1772931084484.8096,0.0485,-0.6309,-0.7485
1772931084484.8096,0.0511,-0.631,-0.7474
1772931084484.8096,0.0492,-0.6295,-0.7501
1772931084484.8096,0.0491,-0.6314,-0.7493
1772931084484.8096,0.0487,-0.6279,-0.7497
1772931084484.8096,0.0473,-0.6292,-0.7479
1772931084484.8096,0.0457,-0.6304,-0.751
1772931084484.8096,0.0454,-0.629,-0.7508
1772931084500.8718,0.0467,-0.6288,-0.7514
1772931084500.8718,0.0451,-0.6271,-0.7525
1772931084500.8718,0.0452,-0.6282,-0.7503
1772931084500.8718,0.043,-0.6266,-0.7527
1772931084500.8718,0.0442,-0.6259,-0.7509
1772931084500.8718,0.0453,-0.6266,-0.7496
1772931084500.8718,0.0451,-0.6281,-0.7495
1772931084500.8718,0.0459,-0.6267,-0.7495
1772931084515.6558,0.0457,-0.6273,-0.7493
1772931084515.6558,0.0479,-0.6274,-0.7514
1772931084515.6558,0.0492,-0.6277,-0.7503
1772931084515.6558,0.0509,-0.6274,-0.7488
1772931084515.6558,0.046,-0.6276,-0.7501
1772931084515.6558,0.0458,-0.6277,-0.7475
1772931084515.6558,0.0459,-0.6263,-0.749
1772931084515.6558,0.0457,-0.6266,-0.7476
1772931084530.4587,0.048,-0.6262,-0.7471
1772931084530.4587,0.0467,-0.6255,-0.746
1772931084530.4587,0.0475,-0.626,-0.7469
1772931084530.4587,0.0462,-0.626,-0.7481
1772931084530.4587,0.0466,-0.6273,-0.7471
1772931084530.4587,0.047,-0.6286,-0.7472
1772931084530.4587,0.0447,-0.6298,-0.7464
1772931084530.4587,0.0431,-0.6307,-0.7451
1772931084545.5286,0.044,-0.6308,-0.7438
1772931084545.5286,0.0415,-0.6293,-0.7458
1772931084545.5286,0.0411,-0.6296,-0.749
1772931084545.5286,0.0416,-0.6293,-0.7456
1772931084545.5286,0.0409,-0.6314,-0.7486
1772931084561.033,0.0431,-0.6296,-0.7462
1772931084561.033,0.0419,-0.6303,-0.7493
1772931084561.033,0.0414,-0.6302,-0.7505
1772931084561.033,0.0412,-0.6285,-0.7509
1772931084561.033,0.0379,-0.6292,-0.7512
1772931084561.033,0.0404,-0.6297,-0.7523
1772931084561.033,0.0381,-0.6287,-0.7525
1772931084561.033,0.0383,-0.6276,-0.7499
1772931084576.698,0.0416,-0.6284,-0.7496
1772931084576.698,0.0413,-0.6259,-0.7508
1772931084576.698,0.0426,-0.6276,-0.7491
1772931084576.698,0.0416,-0.6257,-0.7502
1772931084576.698,0.044,-0.6273,-0.7505
1772931084576.698,0.0473,-0.6277,-0.7496
1772931084576.698,0.0459,-0.6273,-0.7509
1772931084576.698,0.0472,-0.6263,-0.7488
1772931084592.3206,0.0471,-0.6258,-0.7501
1772931084592.3206,0.0475,-0.6279,-0.7514
1772931084592.3206,0.0482,-0.6267,-0.7496
1772931084592.3206,0.0465,-0.6266,-0.7485
1772931084592.3206,0.0478,-0.6282,-0.7488
1772931084592.3206,0.045,-0.6286,-0.7502
1772931084592.3206,0.0465,-0.6281,-0.7523
1772931084592.3206,0.0476,-0.6278,-0.7493
1772931084607.5173,0.048,-0.6307,-0.7465
1772931084607.5173,0.0493,-0.6287,-0.7481
1772931084607.5173,0.0501,-0.6279,-0.7507
1772931084607.5173,0.0514,-0.6273,-0.7503
1772931084607.5173,0.0497,-0.6281,-0.7494
1772931084607.5173,0.0498,-0.6274,-0.7506
1772931084623.1287,0.0487,-0.6271,-0.7501
1772931084623.1287,0.0473,-0.6299,-0.7493
1772931084623.1287,0.0497,-0.629,-0.7499
1772931084623.1287,0.0483,-0.6304,-0.7504
1772931084623.1287,0.0483,-0.631,-0.7499
1772931084623.1287,0.0463,-0.6304,-0.7498
1772931084623.1287,0.0481,-0.6318,-0.745
1772931084623.1287,0.0462,-0.6329,-0.7497
1772931084639.077,0.046,-0.6307,-0.7486
1772931084639.077,0.0469,-0.6317,-0.749
1772931084639.077,0.0479,-0.6329,-0.7518
1772931084639.077,0.0476,-0.6336,-0.7472
1772931084639.077,0.0481,-0.6326,-0.7501
1772931084639.077,0.0315,-0.6315,-0.7504
1772931084639.077,0.0495,-0.6327,-0.752
1772931084639.077,0.0471,-0.6332,-0.7479
1772931084654.6628,0.0456,-0.6334,-0.7499
1772931084654.6628,0.0463,-0.6332,-0.7492
1772931084654.6628,0.0446,-0.6334,-0.75
1772931084654.6628,0.0453,-0.6326,-0.7488
1772931084654.6628,0.0457,-0.6317,-0.7471
1772931084654.6628,0.0471,-0.6348,-0.7465
1772931084654.6628,0.0473,-0.6328,-0.7483
1772931084654.6628,0.0444,-0.6335,-0.7507
1772931084669.8088,0.0471,-0.6312,-0.7488
1772931084669.8088,0.0478,-0.6307,-0.7472
1772931084669.8088,0.0466,-0.6304,-0.7508
1772931084669.8088,0.049,-0.6306,-0.7491
1772931084669.8088,0.0506,-0.6311,-0.7465
1772931084669.8088,0.0512,-0.6315,-0.7456
1772931084669.8088,0.0502,-0.6305,-0.7479
1772931084669.8088,0.0509,-0.6287,-0.7483
1772931084685.9136,0.0493,-0.6308,-0.7477
1772931084685.9136,0.0497,-0.6306,-0.7508
1772931084685.9136,0.0472,-0.6299,-0.7499
1772931084685.9136,0.0487,-0.6312,-0.7521
1772931084685.9136,0.048,-0.6317,-0.7482
1772931084701.604,0.0472,-0.6287,-0.7498
1772931084701.604,0.049,-0.6309,-0.7476
1772931084701.604,0.0483,-0.6306,-0.7498
1772931084701.604,0.0487,-0.6304,-0.7485
1772931084701.604,0.05,-0.6288,-0.7498
1772931084701.604,0.0487,-0.6287,-0.7349
1772931084701.604,0.0502,-0.6272,-0.7492
1772931084701.604,0.0484,-0.6279,-0.7507
1772931084717.7092,0.0481,-0.6274,-0.7507
1772931084717.7092,0.0466,-0.6273,-0.751
1772931084717.7092,0.0462,-0.6266,-0.7512
1772931084717.7092,0.0443,-0.6284,-0.7487
1772931084717.7092,0.0472,-0.6291,-0.7521
1772931084717.7092,0.0437,-0.6281,-0.7501
1772931084717.7092,0.0436,-0.6295,-0.7496
1772931084717.7092,0.0436,-0.631,-0.7496
1772931084733.3223,0.0436,-0.6304,-0.7507
1772931084733.3223,0.0431,-0.6293,-0.749
1772931084733.3223,0.0422,-0.6298,-0.7479
1772931084733.3223,0.0404,-0.6318,-0.7485
1772931084733.3223,0.042,-0.6306,-0.749
1772931084733.3223,0.0422,-0.631,-0.7453
1772931084733.3223,0.0428,-0.6281,-0.748
1772931084733.3223,0.0419,-0.6293,-0.7466
1772931084748.8826,0.0429,-0.6288,-0.7499
1772931084748.8826,0.0417,-0.6281,-0.7458
1772931084748.8826,0.0409,-0.6296,-0.7452
1772931084748.8826,0.0447,-0.6284,-0.7477
1772931084748.8826,0.0445,-0.6293,-0.7468
1772931084748.8826,0.0442,-0.6293,-0.7499
1772931084748.8826,0.0439,-0.629,-0.7497
1772931084748.8826,0.0432,-0.6301,-0.7477
1772931084764.7412,0.0448,-0.6281,-0.751
1772931084764.7412,0.0447,-0.6289,-0.7491
1772931084764.7412,0.0454,-0.631,-0.7519
1772931084764.7412,0.0442,-0.6284,-0.7501
1772931084764.7412,0.047,-0.6284,-0.7543
1772931084764.7412,0.0451,-0.6303,-0.7498
1772931084764.7412,0.0461,-0.6288,-0.7524
1772931084764.7412,0.0461,-0.6306,-0.753
1772931084780.3745,0.0488,-0.6268,-0.7504
1772931084780.3745,0.0455,-0.629,-0.7501
1772931084780.3745,0.0491,-0.6277,-0.7525
1772931084780.3745,0.0473,-0.6292,-0.7514
1772931084780.3745,0.0472,-0.6275,-0.7499
1772931084795.9739,0.0482,-0.6285,-0.7497
1772931084795.9739,0.0485,-0.6282,-0.7499
1772931084795.9739,0.0492,-0.6278,-0.75
1772931084795.9739,0.0495,-0.6289,-0.7527
1772931084795.9739,0.0508,-0.6286,-0.7474
1772931084795.9739,0.0467,-0.6283,-0.7514
1772931084795.9739,0.0464,-0.6264,-0.7519
1772931084795.9739,0.0492,-0.6289,-0.7508
1772931084811.705,0.0482,-0.6307,-0.7504
1772931084811.705,0.0495,-0.6303,-0.7488
1772931084811.705,0.0489,-0.633,-0.7506
1772931084811.705,0.0501,-0.6306,-0.7468
1772931084811.705,0.0484,-0.6313,-0.7504
1772931084811.705,0.0495,-0.629,-0.7515
1772931084811.705,0.0479,-0.6296,-0.7507
1772931084811.705,0.0473,-0.6304,-0.7469
1772931084827.7856,0.0474,-0.6296,-0.7475
1772931084827.7856,0.0477,-0.6299,-0.7483
1772931084827.7856,0.0475,-0.6314,-0.7494
1772931084827.7856,0.0465,-0.6317,-0.7485
1772931084827.7856,0.0467,-0.6339,-0.749
1772931084827.7856,0.045,-0.6345,-0.7482
1772931084827.7856,0.0456,-0.6353,-0.748
1772931084827.7856,0.0439,-0.6354,-0.7479
1772931084843.6707,0.0421,-0.6366,-0.7469
1772931084843.6707,0.0408,-0.6421,-0.7455
1772931084843.6707,0.045,-0.6473,-0.748
1772931084843.6707,0.0461,-0.6328,-0.7541
1772931084843.6707,0.0469,-0.6281,-0.753
1772931084843.6707,0.042,-0.6283,-0.7453
1772931084843.6707,0.0397,-0.6396,-0.7455
1772931084843.6707,0.0444,-0.6387,-0.7464
1772931084859.777,0.0484,-0.6273,-0.7502
1772931084859.777,0.0496,-0.6254,-0.7476
1772931084859.777,0.0462,-0.6251,-0.7465
1772931084859.777,0.0473,-0.6323,-0.7455
1772931084859.777,0.0478,-0.6328,-0.7453
1772931084859.777,0.0467,-0.6339,-0.7434
1772931084859.777,0.0445,-0.6355,-0.7461
1772931084859.777,0.0473,-0.6334,-0.7458
1772931084875.9526,0.0467,-0.6323,-0.7427
1772931084875.9526,0.0483,-0.6322,-0.7421
1772931084875.9526,0.048,-0.6377,-0.7458
1772931084875.9526,0.0483,-0.6298,-0.7454
1772931084875.9526,0.0493,-0.6283,-0.7484
1772931084875.9526,0.0486,-0.625,-0.7484
1772931084875.9526,0.0487,-0.6231,-0.743
1772931084875.9526,0.0461,-0.6272,-0.7463
1772931084891.5881,0.0478,-0.63,-0.7463
1772931084891.5881,0.0447,-0.63,-0.7457
1772931084891.5881,0.0447,-0.6295,-0.7459
1772931084891.5881,0.0458,-0.6301,-0.7441
1772931084891.5881,0.0465,-0.6313,-0.7448
1772931084891.5881,0.0612,-0.6304,-0.7465
1772931084891.5881,0.0471,-0.6303,-0.7455
1772931084891.5881,0.0439,-0.6344,-0.7447
1772931084906.5605,0.0471,-0.6348,-0.7435
1772931084906.5605,0.0464,-0.6358,-0.7427
1772931084906.5605,0.0454,-0.6344,-0.7431
1772931084906.5605,0.0443,-0.6345,-0.7393
1772931084906.5605,0.0456,-0.6343,-0.7398
1772931084906.5605,0.0462,-0.6331,-0.7433
1772931084921.2969,0.0464,-0.632,-0.7412
1772931084921.2969,0.0465,-0.6359,-0.7388
1772931084921.2969,0.0462,-0.6387,-0.7402
1772931084921.2969,0.0464,-0.6346,-0.7433
1772931084921.2969,0.0466,-0.6338,-0.7445
1772931084921.2969,0.0445,-0.6317,-0.7421
1772931084921.2969,0.0464,-0.6324,-0.7393
1772931084921.2969,0.0467,-0.6321,-0.7392
1772931084936.6907,0.0458,-0.6328,-0.7397
1772931084936.6907,0.0436,-0.6279,-0.7451
1772931084936.6907,0.0425,-0.6282,-0.7502
1772931084936.6907,0.0396,-0.6261,-0.7539
1772931084936.6907,0.038,-0.6259,-0.7607
1772931084936.6907,0.0398,-0.6265,-0.7582
1772931084936.6907,0.0397,-0.6276,-0.7593
1772931084936.6907,0.0395,-0.6268,-0.7604
1772931084953.3186,0.0393,-0.6258,-0.7643
1772931084953.3186,0.0393,-0.6213,-0.7643
1772931084953.3186,0.0389,-0.6194,-0.7667
1772931084953.3186,0.0392,-0.6211,-0.7686
1772931084953.3186,0.0411,-0.6189,-0.7691
1772931084953.3186,0.0448,-0.6223,-0.7724
1772931084953.3186,0.0481,-0.626,-0.7685
1772931084953.3186,0.0552,-0.6282,-0.7666
1772931084968.6375,0.0557,-0.6328,-0.7643
1772931084968.6375,0.0594,-0.6354,-0.7587
1772931084968.6375,0.0624,-0.6379,-0.7537
1772931084968.6375,0.0636,-0.6406,-0.7508
1772931084968.6375,0.0612,-0.6351,-0.7485
1772931084984.7588,0.0609,-0.6382,-0.7441
1772931084984.7588,0.0552,-0.6364,-0.7455
1772931084984.7588,0.0545,-0.6401,-0.7431
1772931084984.7588,0.0586,-0.6529,-0.7454
1772931084984.7588,0.0634,-0.6605,-0.7427
1772931084984.7588,0.0273,-0.612,-0.7249
1772931084984.7588,0.0271,-0.6143,-0.7265
1772931084984.7588,0.026,-0.6163,-0.7307
1772931085000.9023,0.0284,-0.6259,-0.7309
1772931085000.9023,0.0353,-0.6379,-0.7321
1772931085000.9023,0.0376,-0.6429,-0.7307
1772931085000.9023,0.0435,-0.6444,-0.7269
1772931085000.9023,0.0412,-0.644,-0.7281
1772931085000.9023,0.037,-0.6461,-0.728
1772931085000.9023,0.0369,-0.6411,-0.731
1772931085000.9023,0.0389,-0.6356,-0.734
1772931085016.1958,0.0374,-0.6345,-0.736
1772931085016.1958,0.0349,-0.6329,-0.7392
1772931085016.1958,0.0346,-0.6321,-0.7385
1772931085016.1958,0.0345,-0.6356,-0.7471
1772931085016.1958,0.0351,-0.634,-0.7465
1772931085016.1958,0.0331,-0.6315,-0.749
1772931085016.1958,0.0342,-0.6322,-0.75
1772931085016.1958,0.0357,-0.6302,-0.7499
1772931085031.3977,0.0377,-0.6317,-0.7513
1772931085031.3977,0.0378,-0.6309,-0.7526
1772931085031.3977,0.0405,-0.6338,-0.756
1772931085031.3977,0.0434,-0.6317,-0.7557
1772931085031.3977,0.0453,-0.6328,-0.756
1772931085031.3977,0.0511,-0.631,-0.7537
1772931085031.3977,0.0485,-0.6293,-0.7584
1772931085031.3977,0.051,-0.6308,-0.7601
1772931085047.5098,0.0529,-0.6289,-0.7599
1772931085047.5098,0.0554,-0.6294,-0.7566
1772931085047.5098,0.0572,-0.6296,-0.7584
1772931085047.5098,0.0568,-0.632,-0.7605
1772931085047.5098,0.0581,-0.6287,-0.7613
1772931085047.5098,0.0577,-0.6323,-0.7596
1772931085047.5098,0.0585,-0.6283,-0.758
1772931085047.5098,0.0598,-0.6303,-0.7577
1772931085062.9036,0.0579,-0.6321,-0.7577
1772931085062.9036,0.0577,-0.6288,-0.7583
1772931085062.9036,0.0556,-0.6315,-0.7525
1772931085062.9036,0.0543,-0.6303,-0.7549
1772931085062.9036,0.0529,-0.6303,-0.7547
1772931085079.4978,0.0513,-0.6325,-0.7531
1772931085079.4978,0.0496,-0.634,-0.7543
1772931085079.4978,0.0473,-0.6338,-0.7529
1772931085079.4978,0.0457,-0.6359,-0.7529
1772931085079.4978,0.046,-0.636,-0.7516
1772931085079.4978,0.0464,-0.6389,-0.7526
1772931085079.4978,0.0424,-0.6392,-0.7542
1772931085079.4978,0.0409,-0.64,-0.7538
1772931085094.6682,0.0396,-0.6407,-0.7527
1772931085094.6682,0.0418,-0.6405,-0.754
1772931085094.6682,0.0391,-0.6393,-0.7551
1772931085094.6682,0.0375,-0.6383,-0.7528
1772931085094.6682,0.0379,-0.6364,-0.7549
1772931085094.6682,0.04,-0.6357,-0.751
1772931085094.6682,0.0384,-0.6349,-0.7498
1772931085094.6682,0.0393,-0.6342,-0.7491
1772931085109.8462,0.0399,-0.631,-0.7484
1772931085109.8462,0.0415,-0.6307,-0.744
1772931085109.8462,0.0445,-0.6295,-0.7419
1772931085109.8462,0.047,-0.629,-0.7401
1772931085109.8462,0.0457,-0.6278,-0.7395
1772931085109.8462,0.0482,-0.6243,-0.7381
1772931085109.8462,0.0491,-0.6239,-0.7381
1772931085109.8462,0.0501,-0.6238,-0.7386
1772931085125.7358,0.0493,-0.6231,-0.736
1772931085125.7358,0.0475,-0.6242,-0.7383
1772931085125.7358,0.0465,-0.6243,-0.7393
1772931085125.7358,0.0474,-0.6233,-0.738
1772931085125.7358,0.046,-0.6218,-0.738
1772931085125.7358,0.0451,-0.6205,-0.7396
1772931085125.7358,0.0464,-0.6207,-0.7428
1772931085125.7358,0.0454,-0.6211,-0.7439
1772931085140.9558,0.0438,-0.625,-0.7439
1772931085140.9558,0.0449,-0.6217,-0.7456
1772931085140.9558,0.0441,-0.623,-0.7452
1772931085140.9558,0.0441,-0.6216,-0.7459
1772931085140.9558,0.0432,-0.6237,-0.747
1772931085140.9558,0.0428,-0.6249,-0.7483
1772931085157.2566,0.0451,-0.6257,-0.7472
1772931085157.2566,0.0446,-0.6249,-0.7493
1772931085157.2566,0.0437,-0.6237,-0.7499
1772931085157.2566,0.042,-0.6228,-0.7527
1772931085157.2566,0.0422,-0.6243,-0.7502
1772931085157.2566,0.0409,-0.6231,-0.7521
1772931085157.2566,0.041,-0.622,-0.7557
1772931085157.2566,0.0414,-0.6235,-0.754
1772931085172.9683,0.0401,-0.6231,-0.7564
1772931085172.9683,0.0384,-0.6235,-0.7571
1772931085172.9683,0.0421,-0.6266,-0.7585
1772931085172.9683,0.0404,-0.6274,-0.7551
1772931085172.9683,0.0484,-0.6288,-0.7535
1772931085172.9683,0.05,-0.6313,-0.751
1772931085172.9683,0.0509,-0.629,-0.7485
1772931085172.9683,0.0531,-0.627,-0.7488
1772931085188.6482,0.0523,-0.6269,-0.7483
1772931085188.6482,0.0521,-0.6276,-0.7453
1772931085188.6482,0.0521,-0.6277,-0.7447
1772931085188.6482,0.0464,-0.6299,-0.7473
1772931085188.6482,0.0477,-0.6321,-0.7466
1772931085188.6482,0.0457,-0.6339,-0.7463
1772931085188.6482,0.044,-0.6333,-0.747
1772931085188.6482,0.043,-0.6356,-0.7474
1772931085204.273,0.0432,-0.6357,-0.7515
1772931085204.273,0.0424,-0.636,-0.7508
1772931085204.273,0.0425,-0.6357,-0.7512
1772931085204.273,0.0432,-0.6335,-0.7513
1772931085204.273,0.0397,-0.6349,-0.7511
1772931085204.273,0.0409,-0.6337,-0.7502
1772931085204.273,0.0416,-0.6318,-0.7522
1772931085204.273,0.0398,-0.6335,-0.7508
1772931085219.568,0.0405,-0.6332,-0.7525
1772931085219.568,0.0439,-0.6341,-0.7529
1772931085219.568,0.0438,-0.6335,-0.7521
1772931085219.568,0.0452,-0.6339,-0.7529
1772931085219.568,0.0462,-0.6338,-0.7539
1772931085219.568,0.0444,-0.635,-0.7546
1772931085219.568,0.0454,-0.6338,-0.7527
1772931085219.568,0.0454,-0.6354,-0.7554
1772931085234.974,0.0448,-0.6342,-0.7536
1772931085234.974,0.0453,-0.6356,-0.7529
1772931085234.974,0.0459,-0.6357,-0.7516
1772931085234.974,0.0437,-0.6353,-0.7524
1772931085234.974,0.0461,-0.6351,-0.7538
1772931085250.5854,0.0435,-0.6359,-0.7502
1772931085250.5854,0.0473,-0.6362,-0.7501
1772931085250.5854,0.0492,-0.6349,-0.7502
1772931085250.5854,0.047,-0.6333,-0.7508
1772931085250.5854,0.0473,-0.6345,-0.7482
1772931085250.5854,0.0488,-0.6327,-0.7516
1772931085250.5854,0.0466,-0.6315,-0.751
1772931085250.5854,0.0476,-0.6289,-0.7513
1772931085265.9248,0.0481,-0.6275,-0.7515
1772931085265.9248,0.0468,-0.6267,-0.7528
1772931085265.9248,0.0476,-0.6276,-0.7514
1772931085265.9248,0.0454,-0.6279,-0.753
1772931085265.9248,0.0467,-0.6282,-0.7494
1772931085265.9248,0.0483,-0.6283,-0.7491
1772931085265.9248,0.0509,-0.6292,-0.7512
1772931085265.9248,0.0459,-0.6287,-0.7498
1772931085281.529,0.0465,-0.631,-0.7485
1772931085281.529,0.0442,-0.6313,-0.7493
1772931085281.529,0.0454,-0.6325,-0.7485
1772931085281.529,0.0491,-0.6306,-0.7476
1772931085281.529,0.0485,-0.628,-0.7468
1772931085281.529,0.046,-0.6278,-0.7459
1772931085281.529,0.0515,-0.6296,-0.7466
1772931085281.529,0.0494,-0.6289,-0.7473
1772931085296.7764,0.0494,-0.6276,-0.7443
1772931085296.7764,0.0506,-0.6309,-0.7492
1772931085296.7764,0.0506,-0.6316,-0.748
1772931085296.7764,0.0506,-0.6318,-0.748
1772931085296.7764,0.0512,-0.6315,-0.7466
1772931085312.9019,0.0496,-0.6314,-0.749
1772931085312.9019,0.0486,-0.6332,-0.7469
1772931085312.9019,0.0472,-0.628,-0.7493
1772931085312.9019,0.047,-0.6295,-0.7491
1772931085312.9019,0.0483,-0.6293,-0.7471
1772931085312.9019,0.0475,-0.6314,-0.7472
1772931085312.9019,0.0464,-0.6305,-0.7462
1772931085312.9019,0.0478,-0.6308,-0.7448
1772931085328.562,0.0457,-0.6322,-0.7454
1772931085328.562,0.0475,-0.6299,-0.7464
1772931085328.562,0.0482,-0.6314,-0.7454
1772931085328.562,0.0471,-0.6285,-0.7465
1772931085328.562,0.045,-0.6287,-0.7454
1772931085328.562,0.0458,-0.6279,-0.7474
1772931085328.562,0.0476,-0.629,-0.7454
1772931085328.562,0.0461,-0.6282,-0.7466
1772931085344.9019,0.044,-0.6273,-0.747
1772931085344.9019,0.0453,-0.6266,-0.7488
1772931085344.9019,0.0411,-0.6278,-0.7471
1772931085344.9019,0.042,-0.6282,-0.7474
1772931085344.9019,0.039,-0.6261,-0.747
1772931085344.9019,0.0399,-0.6276,-0.7473
1772931085344.9019,0.0426,-0.6292,-0.7465
1772931085344.9019,0.0413,-0.6288,-0.7483
1772931085360.0046,0.0415,-0.6281,-0.748
1772931085360.0046,0.0416,-0.6317,-0.7508
1772931085360.0046,0.0416,-0.6292,-0.7472
1772931085360.0046,0.0423,-0.6308,-0.7499
1772931085360.0046,0.0445,-0.631,-0.7486
1772931085360.0046,0.0425,-0.6276,-0.7485
1772931085360.0046,0.0427,-0.6268,-0.7486
1772931085360.0046,0.0437,-0.6304,-0.7506
1772931085375.783,0.0432,-0.6271,-0.7483
1772931085375.783,0.0456,-0.6285,-0.7342
1772931085375.783,0.045,-0.6276,-0.7486
1772931085375.783,0.044,-0.6281,-0.7479
1772931085375.783,0.0444,-0.6274,-0.7504
1772931085375.783,0.046,-0.6274,-0.7478
1772931085375.783,0.0447,-0.6275,-0.7493
1772931085375.783,0.0437,-0.6304,-0.7505
1772931085391.3308,0.0436,-0.6275,-0.7478
1772931085391.3308,0.0426,-0.6306,-0.7458
1772931085391.3308,0.0437,-0.6298,-0.7494
1772931085391.3308,0.0439,-0.6296,-0.7465
1772931085391.3308,0.0437,-0.6287,-0.7495
1772931085391.3308,0.044,-0.6298,-0.7501
1772931085406.4907,0.0437,-0.6322,-0.7491
1772931085406.4907,0.0432,-0.6312,-0.7477
1772931085406.4907,0.0471,-0.6305,-0.7469
1772931085406.4907,0.0454,-0.6288,-0.7481
1772931085406.4907,0.0503,-0.6298,-0.7498
1772931085406.4907,0.0483,-0.6318,-0.7479
1772931085406.4907,0.0475,-0.6322,-0.7472
1772931085406.4907,0.0503,-0.6308,-0.7485
1772931085421.5652,0.0484,-0.6332,-0.7494
1772931085421.5652,0.0499,-0.6329,-0.7489
1772931085421.5652,0.0455,-0.6339,-0.7493
1772931085421.5652,0.0467,-0.6346,-0.7499
1772931085421.5652,0.0456,-0.6351,-0.7482
1772931085421.5652,0.0443,-0.6349,-0.7504
1772931085421.5652,0.047,-0.6343,-0.7498
1772931085421.5652,0.0439,-0.6356,-0.7501
1772931085437.6165,0.0443,-0.6353,-0.748
1772931085437.6165,0.0444,-0.635,-0.7479
1772931085437.6165,0.044,-0.6351,-0.7487
1772931085437.6165,0.0445,-0.6322,-0.7476
1772931085437.6165,0.0461,-0.6308,-0.7479
1772931085437.6165,0.0478,-0.6296,-0.7474
1772931085437.6165,0.048,-0.6312,-0.7474
1772931085437.6165,0.0484,-0.6299,-0.7462
1772931085453.7073,0.0487,-0.6309,-0.7465
1772931085453.7073,0.05,-0.6295,-0.7455
1772931085453.7073,0.0471,-0.6312,-0.7489
1772931085453.7073,0.0523,-0.631,-0.7471
1772931085453.7073,0.0526,-0.6313,-0.748
1772931085453.7073,0.0513,-0.6295,-0.7466
1772931085453.7073,0.0547,-0.6288,-0.7483
1772931085453.7073,0.0559,-0.6285,-0.7481
1772931085469.8245,0.0506,-0.631,-0.7505
1772931085469.8245,0.0523,-0.6307,-0.7482
1772931085469.8245,0.051,-0.6272,-0.7498
1772931085469.8245,0.0506,-0.6284,-0.7483
1772931085469.8245,0.0497,-0.6273,-0.748
1772931085469.8245,0.0478,-0.6295,-0.7504
1772931085469.8245,0.0494,-0.6295,-0.7464
1772931085469.8245,0.048,-0.6303,-0.7465
1772931085485.919,0.0461,-0.6287,-0.7486
1772931085485.919,0.0456,-0.6289,-0.7472
1772931085485.919,0.0468,-0.6303,-0.7498
1772931085485.919,0.0454,-0.6315,-0.7463
1772931085485.919,0.0461,-0.6331,-0.7486
1772931085501.473,0.0465,-0.6321,-0.7476
1772931085501.473,0.0467,-0.6315,-0.7463
1772931085501.473,0.0475,-0.632,-0.7453
1772931085501.473,0.0459,-0.6319,-0.7474
1772931085501.473,0.0451,-0.6323,-0.7493
1772931085501.473,0.0504,-0.6326,-0.7465
1772931085501.473,0.0443,-0.6338,-0.7496
1772931085501.473,0.0468,-0.6323,-0.7498
1772931085516.6646,0.048,-0.6327,-0.7506
1772931085516.6646,0.0459,-0.6306,-0.7487
1772931085516.6646,0.0478,-0.6288,-0.7498
1772931085516.6646,0.0473,-0.6312,-0.7497
1772931085516.6646,0.0458,-0.6299,-0.7468
1772931085516.6646,0.0456,-0.6298,-0.7487
1772931085516.6646,0.0449,-0.6306,-0.7494
1772931085516.6646,0.0442,-0.6303,-0.7483
1772931085532.462,0.0425,-0.629,-0.749
1772931085532.462,0.0442,-0.6331,-0.7482
1772931085532.462,0.0428,-0.632,-0.7465
1772931085532.462,0.0453,-0.6316,-0.7468
1772931085532.462,0.0455,-0.6309,-0.7498
1772931085532.462,0.0457,-0.6318,-0.7479
1772931085532.462,0.0456,-0.6315,-0.747
1772931085532.462,0.0458,-0.6305,-0.7499
1772931085547.9297,0.0463,-0.6306,-0.7515
1772931085547.9297,0.0451,-0.6305,-0.7523
1772931085547.9297,0.0462,-0.631,-0.7529
1772931085547.9297,0.0451,-0.6319,-0.7523
1772931085547.9297,0.0454,-0.6315,-0.7521
1772931085547.9297,0.0439,-0.6326,-0.7505
1772931085547.9297,0.0426,-0.633,-0.7536
1772931085547.9297,0.0433,-0.6301,-0.7487
1772931085563.3596,0.0429,-0.6307,-0.7488
1772931085563.3596,0.047,-0.6307,-0.7505
1772931085563.3596,0.0456,-0.6304,-0.7508
1772931085563.3596,0.0454,-0.6296,-0.7462
1772931085563.3596,0.0467,-0.6273,-0.7493
1772931085578.9937,0.0471,-0.6298,-0.7472
1772931085578.9937,0.0468,-0.6285,-0.7483
1772931085578.9937,0.0489,-0.6304,-0.7488
1772931085578.9937,0.0485,-0.6299,-0.7484
1772931085578.9937,0.0479,-0.6295,-0.7497
1772931085578.9937,0.0472,-0.6312,-0.7483
1772931085578.9937,0.0491,-0.629,-0.7464
1772931085578.9937,0.0457,-0.63,-0.7456
1772931085594.8196,0.0493,-0.6298,-0.7487
1772931085594.8196,0.0489,-0.6335,-0.7487
1772931085594.8196,0.0485,-0.634,-0.7477
1772931085594.8196,0.0485,-0.6332,-0.7473
1772931085594.8196,0.0491,-0.6321,-0.749
1772931085594.8196,0.0484,-0.6313,-0.7483
1772931085594.8196,0.0498,-0.6307,-0.7481
1772931085594.8196,0.0481,-0.6328,-0.7476
1772931085610.8743,0.0488,-0.6313,-0.7435
1772931085610.8743,0.0514,-0.6307,-0.7451
1772931085610.8743,0.0508,-0.6313,-0.7472
1772931085610.8743,0.0487,-0.6306,-0.7462
1772931085610.8743,0.049,-0.6328,-0.745
1772931085610.8743,0.0466,-0.6337,-0.7432
1772931085610.8743,0.0474,-0.6319,-0.7446
1772931085610.8743,0.0467,-0.6333,-0.7462
1772931085626.4229,0.0461,-0.6336,-0.7449
1772931085626.4229,0.0472,-0.6328,-0.7465
1772931085626.4229,0.0465,-0.6305,-0.7444
1772931085626.4229,0.0438,-0.6304,-0.7432
1772931085626.4229,0.0468,-0.6309,-0.7454
1772931085626.4229,0.0442,-0.6291,-0.7445
1772931085626.4229,0.0446,-0.6309,-0.7415
1772931085626.4229,0.0447,-0.6338,-0.7419
1772931085641.9739,0.0466,-0.6339,-0.7429
1772931085641.9739,0.0439,-0.6344,-0.7453
1772931085641.9739,0.0422,-0.6345,-0.7457
1772931085641.9739,0.042,-0.6355,-0.7462
1772931085641.9739,0.0437,-0.6355,-0.7442
1772931085641.9739,0.0411,-0.6372,-0.7427
1772931085641.9739,0.0434,-0.6367,-0.7465
1772931085641.9739,0.0421,-0.6359,-0.7451
1772931085657.5195,0.0426,-0.636,-0.7454
1772931085657.5195,0.0434,-0.635,-0.7455
1772931085657.5195,0.0443,-0.6368,-0.7462
1772931085657.5195,0.0456,-0.6337,-0.7446
1772931085657.5195,0.0454,-0.6338,-0.7455
1772931085657.5195,0.0461,-0.6345,-0.7475
1772931085673.075,0.0431,-0.6326,-0.7467
1772931085673.075,0.0457,-0.6316,-0.7466
1772931085673.075,0.0466,-0.6315,-0.7453
1772931085673.075,0.0455,-0.631,-0.7467
1772931085673.075,0.045,-0.6307,-0.7453
1772931085673.075,0.0493,-0.6299,-0.7476
1772931085673.075,0.0493,-0.6309,-0.7455
1772931085673.075,0.0496,-0.6317,-0.7467
1772931085688.5464,0.0506,-0.6307,-0.745
1772931085688.5464,0.0501,-0.6329,-0.7434
1772931085688.5464,0.0526,-0.634,-0.7476
1772931085688.5464,0.0504,-0.6363,-0.7415
1772931085688.5464,0.0544,-0.6356,-0.7435
1772931085688.5464,0.0512,-0.6349,-0.7405
1772931085688.5464,0.0512,-0.6326,-0.7405
1772931085688.5464,0.0539,-0.6329,-0.7391
1772931085703.6167,0.0525,-0.6339,-0.7399
1772931085703.6167,0.0521,-0.634,-0.7382
1772931085703.6167,0.0512,-0.6324,-0.741
1772931085703.6167,0.0498,-0.6333,-0.7399
1772931085703.6167,0.0451,-0.6316,-0.7393
1772931085703.6167,0.0456,-0.6322,-0.7407
1772931085703.6167,0.0443,-0.634,-0.7394
1772931085703.6167,0.0454,-0.6332,-0.7386
1772931085718.856,0.0416,-0.6328,-0.7433
1772931085718.856,0.0381,-0.6284,-0.7469
1772931085718.856,0.0389,-0.629,-0.7491
1772931085718.856,0.0371,-0.629,-0.7498
1772931085718.856,0.037,-0.6266,-0.7555
1772931085734.7678,0.037,-0.6292,-0.7579
1772931085734.7678,0.0409,-0.6296,-0.7545
1772931085734.7678,0.0443,-0.6316,-0.7569
1772931085734.7678,0.0424,-0.6278,-0.7585
1772931085734.7678,0.044,-0.6263,-0.7638
1772931085734.7678,0.0443,-0.6202,-0.7641
1772931085734.7678,0.0398,-0.6207,-0.7673
1772931085734.7678,0.0461,-0.6221,-0.7662
1772931085750.8381,0.0476,-0.6264,-0.7687
1772931085750.8381,0.0499,-0.6282,-0.7651
1772931085750.8381,0.051,-0.6316,-0.7662
1772931085750.8381,0.0525,-0.6363,-0.7624
1772931085750.8381,0.0572,-0.641,-0.7573
1772931085750.8381,0.0603,-0.6411,-0.7557
1772931085750.8381,0.06,-0.6401,-0.751
1772931085750.8381,0.0582,-0.6374,-0.7471
1772931085766.6677,0.0538,-0.6345,-0.7467
1772931085766.6677,0.0539,-0.6326,-0.7449
1772931085766.6677,0.0512,-0.6309,-0.7451
1772931085766.6677,0.0442,-0.6292,-0.7415
1772931085766.6677,0.0417,-0.6301,-0.7407
1772931085766.6677,0.0447,-0.6333,-0.7381
1772931085766.6677,0.0456,-0.6372,-0.7335
1772931085766.6677,0.0454,-0.6373,-0.7323
1772931085782.1936,0.0442,-0.6401,-0.7299
1772931085782.1936,0.0442,-0.6411,-0.7275
1772931085782.1936,0.0423,-0.6412,-0.726
1772931085782.1936,0.0393,-0.6403,-0.7275
1772931085782.1936,0.0386,-0.6375,-0.7279
1772931085782.1936,0.0344,-0.6387,-0.7282
1772931085782.1936,0.0335,-0.639,-0.7305
1772931085782.1936,0.0331,-0.6415,-0.7337
1772931085798.7502,0.0334,-0.6373,-0.7363
1772931085798.7502,0.0331,-0.6371,-0.735
1772931085798.7502,0.0324,-0.6354,-0.7386
1772931085798.7502,0.033,-0.6354,-0.7399
1772931085798.7502,0.0353,-0.6345,-0.745
1772931085798.7502,0.0348,-0.6306,-0.7446
1772931085798.7502,0.0346,-0.632,-0.7483
1772931085798.7502,0.036,-0.6299,-0.7481
1772931085813.757,0.0394,-0.63,-0.7495
1772931085813.757,0.0442,-0.6317,-0.7516
1772931085813.757,0.0451,-0.6309,-0.7522
1772931085813.757,0.0479,-0.6317,-0.7521
1772931085813.757,0.0489,-0.6323,-0.7513
1772931085829.37,0.0501,-0.6328,-0.7529
1772931085829.37,0.0517,-0.632,-0.7557
1772931085829.37,0.0519,-0.6311,-0.759
1772931085829.37,0.0537,-0.6301,-0.7607
1772931085829.37,0.0531,-0.6314,-0.76
1772931085829.37,0.0543,-0.6257,-0.7634
1772931085829.37,0.0564,-0.6281,-0.7651
1772931085829.37,0.0573,-0.6298,-0.7626
1772931085845.943,0.0561,-0.628,-0.7605
1772931085845.943,0.0581,-0.6271,-0.7615
1772931085845.943,0.0586,-0.6276,-0.7588
1772931085845.943,0.0581,-0.6271,-0.759
1772931085845.943,0.0574,-0.6279,-0.756
1772931085845.943,0.0587,-0.6287,-0.7546
1772931085845.943,0.0556,-0.6282,-0.7549
1772931085845.943,0.0525,-0.6306,-0.7523
1772931085860.9426,0.0556,-0.6331,-0.7528
1772931085860.9426,0.0549,-0.6365,-0.7527
1772931085860.9426,0.0503,-0.6362,-0.7531
1772931085860.9426,0.0445,-0.6392,-0.7533
1772931085860.9426,0.0478,-0.6381,-0.7531
1772931085860.9426,0.0459,-0.6392,-0.7511
1772931085860.9426,0.0466,-0.6376,-0.7518
1772931085860.9426,0.0459,-0.6403,-0.7514
1772931085875.8755,0.0424,-0.6395,-0.7552
1772931085875.8755,0.0441,-0.6401,-0.7512
1772931085875.8755,0.0439,-0.6391,-0.7518
1772931085875.8755,0.0434,-0.6378,-0.7496
1772931085875.8755,0.0421,-0.6349,-0.7488
1772931085875.8755,0.0423,-0.6373,-0.749
1772931085875.8755,0.0428,-0.636,-0.7481
1772931085875.8755,0.0426,-0.6367,-0.7443
1772931085891.2786,0.0425,-0.6345,-0.7417
1772931085891.2786,0.0442,-0.6348,-0.7452
1772931085891.2786,0.0425,-0.6343,-0.7435
1772931085891.2786,0.0447,-0.6317,-0.7416
1772931085891.2786,0.0457,-0.6316,-0.7413
1772931085891.2786,0.0465,-0.6308,-0.7382
1772931085906.3604,0.0432,-0.6283,-0.7402
1772931085906.3604,0.0442,-0.6291,-0.7391
1772931085906.3604,0.044,-0.6269,-0.7387
1772931085906.3604,0.0447,-0.6265,-0.7397
1772931085906.3604,0.0447,-0.626,-0.7381
1772931085906.3604,0.0469,-0.6261,-0.7396
1772931085906.3604,0.0457,-0.6242,-0.741
1772931085906.3604,0.0462,-0.625,-0.7399
1772931085921.3118,0.0462,-0.6251,-0.7377
1772931085921.3118,0.0454,-0.626,-0.7445
1772931085921.3118,0.0452,-0.6217,-0.7444
1772931085921.3118,0.045,-0.6227,-0.744
1772931085921.3118,0.0456,-0.6247,-0.7444
1772931085921.3118,0.0487,-0.626,-0.7483
1772931085921.3118,0.0455,-0.6248,-0.7465
1772931085921.3118,0.0484,-0.6244,-0.7451
1772931085936.86,0.0453,-0.6232,-0.7474
1772931085936.86,0.0454,-0.625,-0.7491
1772931085936.86,0.0492,-0.6246,-0.7482
1772931085936.86,0.0482,-0.6229,-0.7487
1772931085936.86,0.0462,-0.6238,-0.7492
1772931085936.86,0.0483,-0.6229,-0.7485
1772931085936.86,0.0489,-0.6243,-0.7524
1772931085936.86,0.0479,-0.623,-0.7527
1772931085953.4004,0.0451,-0.6214,-0.7515
1772931085953.4004,0.041,-0.6204,-0.7587
1772931085953.4004,0.0403,-0.6222,-0.7574
1772931085953.4004,0.042,-0.6234,-0.7554
1772931085953.4004,0.0412,-0.629,-0.7574
1772931085953.4004,0.0481,-0.6323,-0.7544
1772931085953.4004,0.0495,-0.6317,-0.7511
1772931085953.4004,0.0511,-0.6304,-0.7514
1772931085968.906,0.0504,-0.6315,-0.7491
1772931085968.906,0.0518,-0.6304,-0.7502
1772931085968.906,0.052,-0.6301,-0.7462
1772931085968.906,0.0461,-0.6313,-0.746
1772931085968.906,0.0456,-0.6328,-0.7478
1772931085985.031,0.0424,-0.6339,-0.7451
1772931085985.031,0.0424,-0.6351,-0.7464
1772931085985.031,0.044,-0.6358,-0.7481
1772931085985.031,0.0417,-0.6357,-0.7493
1772931085985.031,0.0418,-0.6361,-0.7467
1772931085985.031,0.0411,-0.6378,-0.751
1772931085985.031,0.0432,-0.6365,-0.7494
1772931085985.031,0.0404,-0.6354,-0.7492
1772931086000.7178,0.0417,-0.6357,-0.7499
1772931086000.7178,0.0408,-0.6351,-0.7491
1772931086000.7178,0.042,-0.6361,-0.7499
1772931086000.7178,0.0427,-0.6358,-0.7524
1772931086000.7178,0.0428,-0.6348,-0.7546
1772931086000.7178,0.0431,-0.6354,-0.751
1772931086000.7178,0.0445,-0.6335,-0.7537
1772931086000.7178,0.0429,-0.6381,-0.7514
1772931086016.312,0.0434,-0.6352,-0.7548
1772931086016.312,0.0434,-0.639,-0.7519
1772931086016.312,0.044,-0.6353,-0.753
1772931086016.312,0.0454,-0.6353,-0.751
1772931086016.312,0.0442,-0.6365,-0.7487
1772931086016.312,0.0467,-0.6351,-0.7497
1772931086016.312,0.0481,-0.6357,-0.7478
1772931086016.312,0.049,-0.6347,-0.7499
1772931086031.4377,0.0489,-0.6343,-0.7463
1772931086031.4377,0.0495,-0.6365,-0.7469
1772931086031.4377,0.0492,-0.6348,-0.7456
1772931086031.4377,0.047,-0.6318,-0.7463
1772931086031.4377,0.0521,-0.6342,-0.7474
1772931086031.4377,0.0473,-0.6329,-0.7472
1772931086031.4377,0.0494,-0.6307,-0.7483
1772931086031.4377,0.048,-0.6308,-0.7461
1772931086046.6995,0.0492,-0.6273,-0.7502
1772931086046.6995,0.0471,-0.6298,-0.7486
1772931086046.6995,0.047,-0.6289,-0.7526
1772931086046.6995,0.0511,-0.629,-0.7491
1772931086046.6995,0.0471,-0.6288,-0.7516
1772931086063.2378,0.0451,-0.6287,-0.7514
1772931086063.2378,0.0449,-0.6309,-0.7498
1772931086063.2378,0.0483,-0.6283,-0.7529
1772931086063.2378,0.0468,-0.6302,-0.7493
1772931086063.2378,0.0474,-0.6293,-0.751
1772931086063.2378,0.0478,-0.6299,-0.7479
1772931086063.2378,0.0466,-0.6329,-0.7463
1772931086063.2378,0.047,-0.6329,-0.7475
1772931086078.6685,0.047,-0.6328,-0.7483
1772931086078.6685,0.0476,-0.6312,-0.7482
1772931086078.6685,0.0468,-0.6328,-0.7474
1772931086078.6685,0.0467,-0.6323,-0.7498
1772931086078.6685,0.0467,-0.6321,-0.7454
1772931086078.6685,0.046,-0.6307,-0.7483
1772931086078.6685,0.0474,-0.6303,-0.7501
1772931086078.6685,0.0449,-0.6303,-0.7469
1772931086094.413,0.0461,-0.6288,-0.7463
1772931086094.413,0.0481,-0.6315,-0.7494
1772931086094.413,0.0436,-0.6289,-0.7478
1772931086094.413,0.0454,-0.6304,-0.746
1772931086094.413,0.045,-0.631,-0.7468
1772931086094.413,0.0443,-0.6301,-0.7472
1772931086094.413,0.0476,-0.6312,-0.746
1772931086094.413,0.046,-0.6314,-0.7451
1772931086110.0269,0.0478,-0.6312,-0.7492
1772931086110.0269,0.0472,-0.6274,-0.7463
1772931086110.0269,0.0472,-0.6282,-0.7455
1772931086110.0269,0.0481,-0.6279,-0.7465
1772931086110.0269,0.0481,-0.6288,-0.7452
1772931086110.0269,0.0485,-0.6311,-0.7463
1772931086110.0269,0.0488,-0.628,-0.7436
1772931086110.0269,0.0464,-0.6284,-0.746
1772931086125.593,0.0456,-0.632,-0.7484
1772931086125.593,0.0467,-0.6299,-0.748
1772931086125.593,0.0461,-0.631,-0.7464
1772931086125.593,0.0448,-0.6289,-0.749
1772931086125.593,0.0434,-0.6315,-0.7476
1772931086125.593,0.0428,-0.6309,-0.748
1772931086125.593,0.0431,-0.6288,-0.7461
1772931086125.593,0.0434,-0.6306,-0.747
1772931086141.1357,0.0421,-0.631,-0.7482
1772931086141.1357,0.0426,-0.6314,-0.7476
1772931086141.1357,0.0434,-0.6315,-0.7465
1772931086141.1357,0.042,-0.6307,-0.7465
1772931086141.1357,0.0429,-0.6306,-0.7472
1772931086141.1357,0.0432,-0.6289,-0.7454
1772931086156.5718,0.0429,-0.6296,-0.7475
1772931086156.5718,0.0443,-0.6284,-0.7468
1772931086156.5718,0.047,-0.629,-0.746
1772931086156.5718,0.0464,-0.6274,-0.7463
1772931086156.5718,0.0439,-0.6282,-0.7464
1772931086156.5718,0.0482,-0.6282,-0.7476
1772931086156.5718,0.0448,-0.6306,-0.7477
1772931086156.5718,0.0447,-0.6306,-0.746
1772931086171.7493,0.044,-0.6324,-0.7498
1772931086171.7493,0.0439,-0.6319,-0.7518
1772931086171.7493,0.0439,-0.6299,-0.751
1772931086171.7493,0.0431,-0.6288,-0.752
1772931086171.7493,0.0422,-0.631,-0.753
1772931086171.7493,0.0428,-0.6322,-0.7513
1772931086171.7493,0.0457,-0.6309,-0.7535
1772931086171.7493,0.0431,-0.6289,-0.7509
1772931086187.3547,0.0424,-0.629,-0.7508
1772931086187.3547,0.0445,-0.6309,-0.7498
1772931086187.3547,0.0473,-0.6316,-0.7481
1772931086187.3547,0.0468,-0.6313,-0.7488
1772931086187.3547,0.0473,-0.6323,-0.746
1772931086187.3547,0.0451,-0.6331,-0.7494
1772931086187.3547,0.0445,-0.6348,-0.7501
1772931086187.3547,0.0469,-0.6331,-0.7465
1772931086202.5027,0.0462,-0.6363,-0.7492
1772931086202.5027,0.045,-0.6373,-0.7487
1772931086202.5027,0.0467,-0.6359,-0.7497
1772931086202.5027,0.0464,-0.6347,-0.7488
1772931086202.5027,0.048,-0.636,-0.7485
1772931086202.5027,0.0465,-0.6345,-0.7518
1772931086202.5027,0.049,-0.6342,-0.7488
1772931086202.5027,0.0471,-0.6336,-0.7486
1772931086217.701,0.0487,-0.6317,-0.7459
1772931086217.701,0.0511,-0.6296,-0.7453
1772931086217.701,0.0527,-0.6314,-0.7457
1772931086217.701,0.0501,-0.6318,-0.7478
1772931086217.701,0.0495,-0.6331,-0.748
1772931086233.337,0.05,-0.6331,-0.7465
1772931086233.337,0.0504,-0.6348,-0.7489
1772931086233.337,0.0475,-0.6356,-0.7492
1772931086233.337,0.0472,-0.6346,-0.7503
1772931086233.337,0.048,-0.636,-0.7469
1772931086233.337,0.0457,-0.6328,-0.7473
1772931086233.337,0.0462,-0.6331,-0.7481
1772931086233.337,0.0452,-0.632,-0.7501
1772931086248.5781,0.0434,-0.6326,-0.7463
1772931086248.5781,0.045,-0.6313,-0.7488
1772931086248.5781,0.0451,-0.6336,-0.7474
1772931086248.5781,0.0474,-0.6312,-0.7446
1772931086248.5781,0.0481,-0.6332,-0.7452
1772931086248.5781,0.0488,-0.6311,-0.7462
1772931086248.5781,0.048,-0.6294,-0.7456
1772931086248.5781,0.0473,-0.6297,-0.7464
1772931086264.146,0.0461,-0.6308,-0.748
1772931086264.146,0.0476,-0.6314,-0.7462
1772931086264.146,0.0462,-0.6324,-0.7461
1772931086264.146,0.0448,-0.6302,-0.7509
1772931086264.146,0.0315,-0.6296,-0.7466
1772931086264.146,0.0447,-0.6328,-0.745
1772931086264.146,0.0454,-0.6314,-0.7482
1772931086264.146,0.0448,-0.6319,-0.7485
1772931086280.2454,0.0465,-0.6305,-0.7463
1772931086280.2454,0.0451,-0.6304,-0.7449
1772931086280.2454,0.0464,-0.631,-0.749
1772931086280.2454,0.0474,-0.6306,-0.7487
1772931086280.2454,0.046,-0.629,-0.7481
1772931086295.6584,0.0461,-0.6318,-0.7486
1772931086295.6584,0.0452,-0.6314,-0.7507
1772931086295.6584,0.0446,-0.6293,-0.7485
1772931086295.6584,0.0467,-0.6296,-0.746
1772931086295.6584,0.0465,-0.6318,-0.7474
1772931086295.6584,0.0457,-0.6325,-0.7469
1772931086295.6584,0.0444,-0.6339,-0.746
1772931086295.6584,0.0451,-0.6309,-0.7468
1772931086310.7708,0.0448,-0.632,-0.7496
1772931086310.7708,0.0447,-0.6326,-0.7487
1772931086310.7708,0.0433,-0.6331,-0.7496
1772931086310.7708,0.043,-0.6301,-0.7501
1772931086310.7708,0.0437,-0.633,-0.7497
1772931086310.7708,0.0442,-0.631,-0.7482
1772931086310.7708,0.0441,-0.6314,-0.7491
1772931086310.7708,0.0435,-0.6317,-0.7487
1772931086326.705,0.0436,-0.6317,-0.7502
1772931086326.705,0.0426,-0.6348,-0.7515
1772931086326.705,0.0426,-0.6329,-0.7485
1772931086326.705,0.0434,-0.6331,-0.7492
1772931086326.705,0.0437,-0.632,-0.7493
1772931086326.705,0.0445,-0.6333,-0.7509
1772931086326.705,0.045,-0.6318,-0.7485
1772931086326.705,0.0498,-0.6313,-0.7466
1772931086342.1665,0.0477,-0.6311,-0.7488
1772931086342.1665,0.0493,-0.6323,-0.7467
1772931086342.1665,0.0501,-0.6306,-0.7486
1772931086342.1665,0.0482,-0.632,-0.7465
1772931086342.1665,0.0487,-0.6323,-0.7474
1772931086342.1665,0.0497,-0.6324,-0.7456
1772931086342.1665,0.0505,-0.6361,-0.7488
1772931086342.1665,0.0497,-0.637,-0.7476
1772931086357.7366,0.0494,-0.6329,-0.7485
1772931086357.7366,0.0468,-0.6333,-0.7498
1772931086357.7366,0.0487,-0.6342,-0.7487
1772931086357.7366,0.0496,-0.6338,-0.7472
1772931086357.7366,0.0501,-0.6322,-0.7477
1772931086357.7366,0.0483,-0.6301,-0.7469
1772931086373.1682,0.0473,-0.6324,-0.7496
1772931086373.1682,0.0467,-0.6314,-0.7471
1772931086373.1682,0.0464,-0.6326,-0.7498
1772931086373.1682,0.0454,-0.6293,-0.7494
1772931086373.1682,0.0481,-0.6308,-0.7492
1772931086373.1682,0.0466,-0.6321,-0.7459
1772931086373.1682,0.0454,-0.634,-0.7458
1772931086373.1682,0.0435,-0.6343,-0.7463
1772931086388.984,0.0451,-0.6341,-0.7448
1772931086388.984,0.0424,-0.6351,-0.7442
1772931086388.984,0.0439,-0.6343,-0.7482
1772931086388.984,0.0428,-0.6321,-0.7463
1772931086388.984,0.044,-0.6324,-0.7433
1772931086388.984,0.0422,-0.634,-0.7427
1772931086388.984,0.0445,-0.632,-0.7423
1772931086388.984,0.0462,-0.6341,-0.7442
1772931086404.5112,0.0458,-0.6355,-0.7437
1772931086404.5112,0.0474,-0.6329,-0.7429
1772931086404.5112,0.0503,-0.6342,-0.7436
1772931086404.5112,0.0485,-0.6336,-0.7422
1772931086404.5112,0.048,-0.634,-0.7444
1772931086404.5112,0.0487,-0.6348,-0.7433
1772931086404.5112,0.0478,-0.6324,-0.7429
1772931086404.5112,0.0481,-0.6323,-0.7408
1772931086420.589,0.0465,-0.6323,-0.7464
1772931086420.589,0.0499,-0.6329,-0.7411
1772931086420.589,0.047,-0.6335,-0.7436
1772931086420.589,0.0489,-0.6342,-0.7446
1772931086420.589,0.0492,-0.6334,-0.7405
1772931086420.589,0.0481,-0.6338,-0.7439
1772931086420.589,0.0482,-0.6348,-0.7443
1772931086420.589,0.046,-0.6344,-0.7427
1772931086435.8127,0.0455,-0.6338,-0.7451
1772931086435.8127,0.0478,-0.6341,-0.7468
1772931086435.8127,0.0451,-0.6324,-0.7451
1772931086435.8127,0.0426,-0.6326,-0.7478
1772931086435.8127,0.0433,-0.6328,-0.7475
1772931086451.8965,0.0423,-0.6341,-0.7498
1772931086451.8965,0.0424,-0.6324,-0.7482
1772931086451.8965,0.0426,-0.6349,-0.7449
1772931086451.8965,0.0427,-0.6342,-0.7476
1772931086451.8965,0.0479,-0.6326,-0.7395
1772931086451.8965,0.0487,-0.6337,-0.7382
1772931086451.8965,0.049,-0.6316,-0.7396
1772931086451.8965,0.0496,-0.6329,-0.7414
1772931086467.5989,0.0515,-0.6362,-0.7371
1772931086467.5989,0.0515,-0.6368,-0.7356
1772931086467.5989,0.048,-0.6365,-0.7384
1772931086467.5989,0.0486,-0.6351,-0.7386
1772931086467.5989,0.048,-0.6354,-0.7388
1772931086467.5989,0.0465,-0.6377,-0.7416
1772931086467.5989,0.0437,-0.6374,-0.7415
1772931086467.5989,0.0432,-0.6352,-0.7377
1772931086482.6406,0.0438,-0.6356,-0.739
1772931086482.6406,0.0419,-0.6353,-0.7438
1772931086482.6406,0.0389,-0.634,-0.7459
1772931086482.6406,0.0406,-0.6295,-0.7532
1772931086482.6406,0.0375,-0.6279,-0.7552
1772931086482.6406,0.0401,-0.6287,-0.753
1772931086482.6406,0.0399,-0.6317,-0.7536
1772931086482.6406,0.0427,-0.6305,-0.7573
1772931086497.755,0.0445,-0.6306,-0.7568
1772931086497.755,0.0464,-0.6268,-0.7621
1772931086497.755,0.0471,-0.6252,-0.7582
1772931086497.755,0.0428,-0.6215,-0.7635
1772931086497.755,0.0442,-0.6216,-0.7636
1772931086497.755,0.0447,-0.6215,-0.7671
1772931086497.755,0.0454,-0.627,-0.7659
1772931086497.755,0.0488,-0.6307,-0.7616
1772931086513.8862,0.0498,-0.6321,-0.7632
1772931086513.8862,0.054,-0.6367,-0.7624
1772931086513.8862,0.0544,-0.6381,-0.7574
1772931086513.8862,0.0542,-0.639,-0.7537
1772931086513.8862,0.0567,-0.6374,-0.7522
1772931086513.8862,0.054,-0.6362,-0.7515
1772931086513.8862,0.0515,-0.6396,-0.7488
1772931086513.8862,0.0505,-0.6353,-0.7462
1772931086529.3984,0.0456,-0.6328,-0.7443
1772931086529.3984,0.0461,-0.6344,-0.7396
1772931086529.3984,0.0472,-0.6342,-0.7413
1772931086529.3984,0.0445,-0.6359,-0.7364
1772931086529.3984,0.0441,-0.64,-0.7321
1772931086544.9463,0.0467,-0.6423,-0.7318
1772931086544.9463,0.0453,-0.6422,-0.7271
1772931086544.9463,0.0462,-0.6417,-0.7255
1772931086544.9463,0.0454,-0.641,-0.7258
1772931086544.9463,0.0423,-0.6398,-0.7221
1772931086544.9463,0.0425,-0.6406,-0.7241
1772931086544.9463,0.0411,-0.6398,-0.724
1772931086544.9463,0.0395,-0.6399,-0.7258
1772931086560.7017,0.0381,-0.6393,-0.7288
1772931086560.7017,0.0392,-0.6361,-0.7324
1772931086560.7017,0.0378,-0.6372,-0.7315
1772931086560.7017,0.0359,-0.6342,-0.7338
1772931086560.7017,0.0362,-0.6349,-0.7372
1772931086560.7017,0.0366,-0.6335,-0.7405
1772931086560.7017,0.0388,-0.6313,-0.7437
1772931086560.7017,0.038,-0.6309,-0.7483
1772931086576.764,0.0382,-0.6285,-0.7474
1772931086576.764,0.0403,-0.6286,-0.7496
1772931086576.764,0.0395,-0.6293,-0.7501
1772931086576.764,0.0419,-0.6307,-0.7524
1772931086576.764,0.0416,-0.6328,-0.753
1772931086576.764,0.0435,-0.6344,-0.7551
1772931086576.764,0.0431,-0.6326,-0.7549
1772931086576.764,0.0468,-0.6334,-0.7571
1772931086592.8809,0.0476,-0.6334,-0.7607
1772931086592.8809,0.0505,-0.6316,-0.7583
1772931086592.8809,0.0519,-0.6339,-0.7579
1772931086592.8809,0.0536,-0.6323,-0.7619
1772931086592.8809,0.0557,-0.6309,-0.7591
1772931086592.8809,0.0539,-0.6328,-0.7598
1772931086592.8809,0.0551,-0.6324,-0.7587
1772931086592.8809,0.0569,-0.6297,-0.7591
1772931086607.8503,0.057,-0.6333,-0.7583
1772931086607.8503,0.055,-0.6312,-0.754
1772931086607.8503,0.0557,-0.6303,-0.7529
1772931086607.8503,0.0528,-0.6293,-0.7549
1772931086607.8503,0.0542,-0.6321,-0.7528
1772931086607.8503,0.0539,-0.6328,-0.7507
1772931086623.5283,0.0537,-0.6323,-0.7523
1772931086623.5283,0.0525,-0.6346,-0.7493
1772931086623.5283,0.0498,-0.639,-0.7517
1772931086623.5283,0.0491,-0.6401,-0.7525
1772931086623.5283,0.0503,-0.6395,-0.7512
1772931086623.5283,0.047,-0.6395,-0.7488
1772931086623.5283,0.0432,-0.6395,-0.751
1772931086623.5283,0.0445,-0.6429,-0.7496
1772931086638.6592,0.0445,-0.6418,-0.752
1772931086638.6592,0.0451,-0.6427,-0.7512
1772931086638.6592,0.0437,-0.6428,-0.7516
1772931086638.6592,0.0448,-0.6397,-0.7519
1772931086638.6592,0.0425,-0.6418,-0.7508
1772931086638.6592,0.0437,-0.6383,-0.7487
1772931086638.6592,0.0452,-0.6382,-0.7472
1772931086638.6592,0.0431,-0.6377,-0.746
1772931086654.2046,0.0421,-0.636,-0.7491
1772931086654.2046,0.0437,-0.636,-0.7462
1772931086654.2046,0.0454,-0.6339,-0.741
1772931086654.2046,0.0481,-0.6334,-0.7422
1772931086654.2046,0.0468,-0.6347,-0.7408
1772931086654.2046,0.046,-0.6336,-0.7397
1772931086654.2046,0.0485,-0.6316,-0.7377
1772931086654.2046,0.0466,-0.6307,-0.7383
1772931086669.7751,0.0461,-0.6274,-0.7387
1772931086669.7751,0.0471,-0.6298,-0.7403
1772931086669.7751,0.0477,-0.6282,-0.7377
1772931086669.7751,0.0433,-0.6262,-0.7366
1772931086669.7751,0.0454,-0.6252,-0.7405
1772931086669.7751,0.0438,-0.6279,-0.7399
1772931086669.7751,0.0454,-0.626,-0.7401
1772931086669.7751,0.0439,-0.6235,-0.7432
1772931086685.28,0.0433,-0.6393,-0.743
1772931086685.28,0.0427,-0.6254,-0.7426
1772931086685.28,0.0409,-0.6221,-0.7463
1772931086685.28,0.0443,-0.6226,-0.744
1772931086685.28,0.0432,-0.6221,-0.744
1772931086701.3948,0.0423,-0.6245,-0.7449
1772931086701.3948,0.0441,-0.6234,-0.7443
1772931086701.3948,0.0439,-0.6259,-0.7445
1772931086701.3948,0.0445,-0.6238,-0.7473
1772931086701.3948,0.0445,-0.6237,-0.7446
1772931086701.3948,0.044,-0.6266,-0.7468
1772931086701.3948,0.0464,-0.6264,-0.7465
1772931086701.3948,0.0467,-0.6254,-0.7466
1772931086717.4712,0.047,-0.6246,-0.7495
1772931086717.4712,0.0464,-0.6262,-0.7517
1772931086717.4712,0.0425,-0.6252,-0.754
1772931086717.4712,0.0421,-0.6259,-0.7548
1772931086717.4712,0.0433,-0.6271,-0.7546
1772931086717.4712,0.0451,-0.6313,-0.7516
1772931086717.4712,0.0498,-0.6335,-0.75
1772931086717.4712,0.0534,-0.6338,-0.7474
1772931086732.5188,0.0551,-0.6306,-0.7453
1772931086732.5188,0.0553,-0.628,-0.748
1772931086732.5188,0.0529,-0.6293,-0.7438
1772931086732.5188,0.0523,-0.6297,-0.7424
1772931086732.5188,0.047,-0.6296,-0.7468
1772931086732.5188,0.0462,-0.6321,-0.744
1772931086732.5188,0.0466,-0.633,-0.7442
1772931086732.5188,0.0434,-0.6335,-0.7466
1772931086748.0234,0.0445,-0.6345,-0.7479
1772931086748.0234,0.0403,-0.6376,-0.7492
1772931086748.0234,0.0419,-0.6391,-0.7476
1772931086748.0234,0.0412,-0.6396,-0.7524
1772931086748.0234,0.0403,-0.6383,-0.7475
1772931086748.0234,0.038,-0.6389,-0.7492
1772931086748.0234,0.0418,-0.639,-0.7496
1772931086748.0234,0.0396,-0.6371,-0.7498
1772931086763.4387,0.0418,-0.6379,-0.7505
1772931086763.4387,0.039,-0.6343,-0.7499
1772931086763.4387,0.0428,-0.6333,-0.7515
1772931086763.4387,0.0434,-0.6353,-0.7534
1772931086763.4387,0.0442,-0.6367,-0.7543
1772931086778.573,0.0439,-0.6359,-0.7526
1772931086778.573,0.0437,-0.6371,-0.7542
1772931086778.573,0.0417,-0.6365,-0.7554
1772931086778.573,0.0443,-0.6373,-0.7557
1772931086778.573,0.0432,-0.6359,-0.7527
1772931086778.573,0.0451,-0.6371,-0.7514
1772931086778.573,0.0443,-0.6373,-0.7483
1772931086778.573,0.0458,-0.6354,-0.7501
1772931086794.3574,0.0451,-0.6376,-0.7485
1772931086794.3574,0.0475,-0.634,-0.7474
1772931086794.3574,0.0468,-0.6366,-0.7463
1772931086794.3574,0.053,-0.6362,-0.7453
1772931086794.3574,0.05,-0.6364,-0.7456
1772931086794.3574,0.0497,-0.6349,-0.7471
1772931086794.3574,0.0506,-0.6328,-0.7458
1772931086794.3574,0.0506,-0.6329,-0.7474
1772931086809.5598,0.0477,-0.6289,-0.7459
1772931086809.5598,0.0506,-0.6296,-0.7463
1772931086809.5598,0.0483,-0.6283,-0.7481
1772931086809.5598,0.0327,-0.629,-0.7491
1772931086809.5598,0.0485,-0.6307,-0.7472
1772931086809.5598,0.0503,-0.6336,-0.7465
1772931086809.5598,0.047,-0.6324,-0.7473
1772931086809.5598,0.0468,-0.6324,-0.7488
1772931086825.5774,0.0465,-0.6351,-0.749
1772931086825.5774,0.0471,-0.6373,-0.7483
1772931086825.5774,0.045,-0.6373,-0.7464
1772931086825.5774,0.0479,-0.6353,-0.7474
1772931086825.5774,0.0472,-0.6346,-0.7466
1772931086825.5774,0.0474,-0.6332,-0.7457
1772931086825.5774,0.0481,-0.6335,-0.7471
1772931086825.5774,0.0462,-0.6297,-0.7469
1772931086841.6125,0.0475,-0.6299,-0.7452
1772931086841.6125,0.0493,-0.6285,-0.7455
1772931086841.6125,0.0485,-0.6305,-0.7452
1772931086841.6125,0.0473,-0.6299,-0.7451
1772931086841.6125,0.0459,-0.6281,-0.7465
1772931086841.6125,0.0466,-0.629,-0.7452
1772931086857.7083,0.0465,-0.6328,-0.7464
1772931086857.7083,0.0474,-0.6285,-0.746
1772931086857.7083,0.048,-0.6314,-0.7459
1772931086857.7083,0.0473,-0.6305,-0.7454
1772931086857.7083,0.0463,-0.6317,-0.7451
1772931086857.7083,0.049,-0.6317,-0.7465
1772931086857.7083,0.0465,-0.6318,-0.7477
1772931086857.7083,0.0448,-0.6321,-0.7466
1772931086873.2551,0.0468,-0.6324,-0.7461
1772931086873.2551,0.0431,-0.632,-0.7453
1772931086873.2551,0.0442,-0.6323,-0.7474
1772931086873.2551,0.0443,-0.6331,-0.748
1772931086873.2551,0.0443,-0.6312,-0.7476
1772931086873.2551,0.0435,-0.632,-0.746
1772931086873.2551,0.0429,-0.6334,-0.7454
1772931086873.2551,0.0436,-0.6296,-0.7465
1772931086888.7827,0.0439,-0.6312,-0.7458
1772931086888.7827,0.0439,-0.6317,-0.7459
1772931086888.7827,0.0432,-0.6315,-0.7474
1772931086888.7827,0.0446,-0.6299,-0.7487
1772931086888.7827,0.0442,-0.6291,-0.7476
1772931086888.7827,0.0477,-0.6291,-0.7457
1772931086888.7827,0.0458,-0.6318,-0.7446
1772931086888.7827,0.0443,-0.6299,-0.7471
1772931086904.8403,0.0452,-0.6292,-0.7467
1772931086904.8403,0.0448,-0.6281,-0.7457
1772931086904.8403,0.0454,-0.6292,-0.7463
1772931086904.8403,0.0442,-0.6299,-0.7477
1772931086904.8403,0.0436,-0.6334,-0.7477
1772931086904.8403,0.0445,-0.6295,-0.7467
1772931086904.8403,0.0439,-0.6329,-0.7485
1772931086904.8403,0.044,-0.631,-0.7464
1772931086921.3872,0.044,-0.6315,-0.7494
1772931086921.3872,0.0457,-0.6298,-0.7457
1772931086921.3872,0.0454,-0.6287,-0.7466
1772931086921.3872,0.0446,-0.63,-0.7457
1772931086921.3872,0.0473,-0.6281,-0.7466
1772931086921.3872,0.0466,-0.6296,-0.7491
1772931086921.3872,0.0431,-0.6307,-0.7435
1772931086921.3872,0.045,-0.6293,-0.7454
1772931086936.8462,0.0431,-0.6316,-0.7488
1772931086936.8462,0.0427,-0.6343,-0.7463
1772931086936.8462,0.0415,-0.6336,-0.7434
1772931086936.8462,0.0453,-0.6351,-0.7466
1772931086936.8462,0.0417,-0.6342,-0.748
1772931086936.8462,0.0419,-0.6326,-0.7479
1772931086936.8462,0.0422,-0.6333,-0.7502
1772931086936.8462,0.0451,-0.6349,-0.7484
1772931086952.2444,0.0435,-0.633,-0.7479
1772931086952.2444,0.0436,-0.6329,-0.7475
1772931086952.2444,0.0448,-0.6352,-0.7474
1772931086952.2444,0.0446,-0.6356,-0.7467
1772931086952.2444,0.0481,-0.6362,-0.7485
1772931086967.6025,0.0483,-0.6344,-0.7484
1772931086967.6025,0.0481,-0.6331,-0.7487
1772931086967.6025,0.0483,-0.6331,-0.7479
1772931086967.6025,0.0508,-0.6333,-0.7464
1772931086967.6025,0.0512,-0.6336,-0.7491
1772931086967.6025,0.0514,-0.6337,-0.7468
1772931086967.6025,0.0504,-0.6359,-0.7476
1772931086967.6025,0.0494,-0.6331,-0.7483
1772931086982.3967,0.0495,-0.6362,-0.747
1772931086982.3967,0.0502,-0.6356,-0.748
1772931086982.3967,0.0482,-0.6348,-0.7462
1772931086982.3967,0.0485,-0.6371,-0.7468
1772931086982.3967,0.0474,-0.635,-0.7482
1772931086982.3967,0.0461,-0.6364,-0.7487
1772931086982.3967,0.05,-0.6368,-0.7487
1772931086982.3967,0.0492,-0.6373,-0.7479
1772931086997.4568,0.0472,-0.6328,-0.7488
1772931086997.4568,0.0503,-0.6332,-0.7476
1772931086997.4568,0.0504,-0.6314,-0.7477
1772931086997.4568,0.0495,-0.6339,-0.7443
1772931086997.4568,0.0522,-0.6346,-0.7472
1772931086997.4568,0.0496,-0.6355,-0.7452
1772931086997.4568,0.0497,-0.6332,-0.7454
1772931086997.4568,0.0484,-0.6343,-0.7451
1772931087012.4956,0.0493,-0.6349,-0.7449
1772931087012.4956,0.0429,-0.6336,-0.7485
1772931087012.4956,0.0441,-0.6356,-0.7465
1772931087012.4956,0.0439,-0.6331,-0.7472
1772931087012.4956,0.0436,-0.6338,-0.7479
1772931087028.5632,0.0421,-0.6322,-0.749
1772931087028.5632,0.0432,-0.636,-0.7453
1772931087028.5632,0.0439,-0.6349,-0.7463
1772931087028.5632,0.0464,-0.6328,-0.7454
1772931087028.5632,0.0443,-0.634,-0.7453
1772931087028.5632,0.0465,-0.6315,-0.7455
1772931087028.5632,0.0461,-0.6331,-0.7462
1772931087028.5632,0.047,-0.6331,-0.7466
1772931087043.9377,0.0486,-0.6329,-0.7477
1772931087043.9377,0.0471,-0.6337,-0.7457
1772931087043.9377,0.048,-0.6317,-0.7444
1772931087043.9377,0.0464,-0.6303,-0.745
1772931087043.9377,0.0504,-0.6332,-0.7441
1772931087043.9377,0.0481,-0.6329,-0.7471
1772931087043.9377,0.0481,-0.6323,-0.7466
1772931087043.9377,0.0469,-0.6321,-0.7462
1772931087059.5361,0.0483,-0.633,-0.7477
1772931087059.5361,0.0483,-0.632,-0.7456
1772931087059.5361,0.0454,-0.6317,-0.7504
1772931087059.5361,0.0452,-0.6303,-0.7467
1772931087059.5361,0.0428,-0.6333,-0.7459
1772931087059.5361,0.0423,-0.6329,-0.747
1772931087059.5361,0.0431,-0.6308,-0.7463
1772931087059.5361,0.0424,-0.6324,-0.7496
1772931087075.644,0.0426,-0.6359,-0.7472
1772931087075.644,0.0449,-0.6327,-0.7485
1772931087075.644,0.0421,-0.632,-0.7489
1772931087075.644,0.0434,-0.6343,-0.7479
1772931087075.644,0.0442,-0.6323,-0.7477
1772931087075.644,0.043,-0.6338,-0.7462
1772931087075.644,0.0457,-0.6313,-0.751
1772931087075.644,0.0449,-0.6311,-0.7504
1772931087091.1775,0.0462,-0.6322,-0.7459
1772931087091.1775,0.0481,-0.6317,-0.7493
1772931087091.1775,0.0484,-0.6316,-0.7473
1772931087091.1775,0.0473,-0.6334,-0.7492
1772931087091.1775,0.0459,-0.6341,-0.748
1772931087091.1775,0.0461,-0.6354,-0.7471
1772931087106.7837,0.0461,-0.6362,-0.7498
1772931087106.7837,0.047,-0.6343,-0.7497
1772931087106.7837,0.0502,-0.6348,-0.7483
1772931087106.7837,0.0478,-0.6339,-0.749
1772931087106.7837,0.0475,-0.6332,-0.7471
1772931087106.7837,0.0489,-0.6339,-0.7463
1772931087106.7837,0.0486,-0.6353,-0.7483
1772931087106.7837,0.0492,-0.6329,-0.7453
1772931087122.197,0.0494,-0.6347,-0.7479
1772931087122.197,0.0486,-0.6343,-0.7483
1772931087122.197,0.048,-0.6336,-0.7473
1772931087122.197,0.0469,-0.6336,-0.7469
1772931087122.197,0.0488,-0.6332,-0.7447
1772931087122.197,0.0457,-0.632,-0.7475
1772931087122.197,0.0486,-0.6332,-0.7449
1772931087122.197,0.0312,-0.6318,-0.7437
1772931087136.8433,0.0488,-0.6332,-0.7465
1772931087136.8433,0.0472,-0.6329,-0.7449
1772931087136.8433,0.0468,-0.6332,-0.7442
1772931087136.8433,0.0461,-0.6321,-0.7435
1772931087136.8433,0.048,-0.6342,-0.7445
1772931087136.8433,0.0462,-0.6358,-0.7456
1772931087136.8433,0.0445,-0.6341,-0.7464
1772931087136.8433,0.0443,-0.637,-0.7447
1772931087152.5364,0.0423,-0.6349,-0.7444
1772931087152.5364,0.0431,-0.6354,-0.7458
1772931087152.5364,0.0413,-0.6351,-0.7465
1772931087152.5364,0.0408,-0.6324,-0.7468
1772931087152.5364,0.0411,-0.6342,-0.7463
1772931087168.6572,0.0415,-0.6345,-0.7469
1772931087168.6572,0.0402,-0.6352,-0.7402
1772931087168.6572,0.0412,-0.6354,-0.7433
1772931087168.6572,0.0445,-0.6357,-0.7461
1772931087168.6572,0.0443,-0.6357,-0.7454
1772931087168.6572,0.0466,-0.635,-0.7423
1772931087168.6572,0.0458,-0.634,-0.7415
1772931087168.6572,0.0477,-0.6353,-0.7425
1772931087184.6948,0.0467,-0.6343,-0.7396
1772931087184.6948,0.0478,-0.6366,-0.7404
1772931087184.6948,0.0461,-0.6377,-0.7408
1772931087184.6948,0.0481,-0.6362,-0.7429
1772931087184.6948,0.0463,-0.6336,-0.7439
1772931087184.6948,0.0481,-0.6345,-0.7427
1772931087184.6948,0.0486,-0.6324,-0.7446
1772931087184.6948,0.0486,-0.6326,-0.7393
1772931087200.6624,0.0471,-0.6318,-0.7435
1772931087200.6624,0.0481,-0.631,-0.7426
1772931087200.6624,0.046,-0.6335,-0.7448
1772931087200.6624,0.0465,-0.634,-0.7436
1772931087200.6624,0.0478,-0.636,-0.7466
1772931087200.6624,0.0473,-0.6365,-0.7442
1772931087200.6624,0.0486,-0.6379,-0.7485
1772931087200.6624,0.0487,-0.6387,-0.7455
1772931087216.7722,0.0484,-0.6377,-0.7415
1772931087216.7722,0.0492,-0.6357,-0.7416
1772931087216.7722,0.0466,-0.634,-0.7402
1772931087216.7722,0.0482,-0.6343,-0.7389
1772931087216.7722,0.0482,-0.6342,-0.7343
1772931087216.7722,0.0489,-0.6346,-0.7358
1772931087216.7722,0.0471,-0.638,-0.7333
1772931087216.7722,0.046,-0.6344,-0.7374
1772931087232.3025,0.0442,-0.6359,-0.7357
1772931087232.3025,0.0442,-0.6343,-0.7372
1772931087232.3025,0.0417,-0.6371,-0.7368
1772931087232.3025,0.0422,-0.6354,-0.7382
1772931087232.3025,0.0418,-0.6317,-0.7418
1772931087232.3025,0.0384,-0.6289,-0.7476
1772931087232.3025,0.0382,-0.6284,-0.7496
1772931087232.3025,0.0398,-0.6282,-0.7535
1772931087247.8345,0.0376,-0.6318,-0.7565
1772931087247.8345,0.0404,-0.6325,-0.7578
1772931087247.8345,0.0387,-0.6353,-0.7558
1772931087247.8345,0.042,-0.6343,-0.7581
1772931087247.8345,0.0422,-0.6341,-0.7597
1772931087247.8345,0.0427,-0.6304,-0.7577
1772931087247.8345,0.042,-0.6266,-0.7614
1772931087247.8345,0.0404,-0.6247,-0.7624
1772931087263.8323,0.0431,-0.6248,-0.7653
1772931087263.8323,0.0441,-0.6276,-0.7659
1772931087263.8323,0.0446,-0.632,-0.7639
1772931087263.8323,0.0484,-0.6344,-0.764
1772931087263.8323,0.0501,-0.6407,-0.7616
1772931087263.8323,0.0534,-0.6422,-0.7584
1772931087263.8323,0.0557,-0.6422,-0.7535
1772931087263.8323,0.0572,-0.6416,-0.7516
1772931087279.387,0.0561,-0.6379,-0.7462
1772931087279.387,0.0571,-0.636,-0.7478
1772931087279.387,0.0528,-0.6326,-0.7435
1772931087279.387,0.0531,-0.6339,-0.7426
1772931087279.387,0.0481,-0.6347,-0.7427
1772931087295.7327,0.0488,-0.6357,-0.742
1772931087295.7327,0.047,-0.6372,-0.7368
1772931087295.7327,0.0494,-0.6432,-0.7308
1772931087295.7327,0.048,-0.6405,-0.73
1772931087295.7327,0.0482,-0.6416,-0.7302
1772931087295.7327,0.0479,-0.6434,-0.728
1772931087295.7327,0.0479,-0.6431,-0.7225
1772931087295.7327,0.0435,-0.6421,-0.7255
1772931087310.8672,0.0382,-0.6404,-0.7258
1772931087310.8672,0.0388,-0.6398,-0.7251
1772931087310.8672,0.0384,-0.6384,-0.7267
1772931087310.8672,0.0359,-0.6403,-0.7302
1772931087310.8672,0.0376,-0.6379,-0.7283
1772931087310.8672,0.0336,-0.6379,-0.7307
1772931087310.8672,0.0353,-0.6365,-0.7352
1772931087310.8672,0.0368,-0.6378,-0.7357
1772931087326.6357,0.0322,-0.6367,-0.7415
1772931087326.6357,0.0332,-0.6325,-0.7447
1772931087326.6357,0.0326,-0.6348,-0.748
1772931087326.6357,0.0314,-0.6345,-0.748
1772931087326.6357,0.0339,-0.6307,-0.7492
1772931087326.6357,0.0364,-0.6346,-0.7482
1772931087326.6357,0.0371,-0.6312,-0.7496
1772931087326.6357,0.0408,-0.6339,-0.7515
1772931087341.585,0.0416,-0.6363,-0.7523
1772931087341.585,0.0427,-0.6363,-0.7546
1772931087341.585,0.0461,-0.6349,-0.756
1772931087341.585,0.0456,-0.6351,-0.7569
1772931087341.585,0.0472,-0.6318,-0.7594
1772931087341.585,0.0493,-0.6339,-0.7601
1772931087341.585,0.0535,-0.6337,-0.7612
1772931087341.585,0.0526,-0.6336,-0.7603
1772931087357.566,0.0541,-0.632,-0.7626
1772931087357.566,0.0567,-0.6294,-0.7596
1772931087357.566,0.06,-0.6293,-0.7593
1772931087357.566,0.062,-0.6262,-0.7559
1772931087357.566,0.0628,-0.6262,-0.7565
1772931087357.566,0.0624,-0.6274,-0.7517
1772931087373.1504,0.0584,-0.6301,-0.7541
1772931087373.1504,0.0573,-0.6296,-0.7521
1772931087373.1504,0.0561,-0.6339,-0.7507
1772931087373.1504,0.055,-0.6339,-0.7518
1772931087373.1504,0.0514,-0.6357,-0.7546
1772931087373.1504,0.0498,-0.6392,-0.7537
1772931087373.1504,0.0512,-0.6378,-0.7517
1772931087373.1504,0.0481,-0.6427,-0.7504
1772931087387.911,0.0464,-0.642,-0.7521
1772931087387.911,0.046,-0.6427,-0.752
1772931087387.911,0.0435,-0.6407,-0.7521
1772931087387.911,0.0405,-0.6391,-0.7496
1772931087387.911,0.0422,-0.6389,-0.7493
1772931087387.911,0.042,-0.6387,-0.7479
1772931087387.911,0.042,-0.6373,-0.746
1772931087387.911,0.0432,-0.6397,-0.747
1772931087403.4397,0.0442,-0.6382,-0.7469
1772931087403.4397,0.0428,-0.6382,-0.7459
1772931087403.4397,0.0443,-0.6377,-0.7463
1772931087403.4397,0.0424,-0.6373,-0.7435
1772931087403.4397,0.0439,-0.6382,-0.7416
1772931087403.4397,0.044,-0.6364,-0.7411
1772931087403.4397,0.043,-0.6356,-0.7391
1772931087403.4397,0.0451,-0.6342,-0.7401
1772931087418.992,0.0422,-0.6326,-0.7379
1772931087418.992,0.0427,-0.6326,-0.739
1772931087418.992,0.0437,-0.6306,-0.7375
1772931087418.992,0.0414,-0.631,-0.7421
1772931087418.992,0.0408,-0.6264,-0.7368
1772931087435.0305,0.0376,-0.6261,-0.7411
1772931087435.0305,0.0384,-0.6254,-0.7411
1772931087435.0305,0.0396,-0.6259,-0.7403
1772931087435.0305,0.0396,-0.6271,-0.7413
1772931087435.0305,0.0411,-0.6267,-0.7431
1772931087435.0305,0.0402,-0.6261,-0.7431
1772931087435.0305,0.0419,-0.627,-0.7458
1772931087435.0305,0.046,-0.6245,-0.7435
1772931087450.4475,0.0475,-0.6257,-0.7463
1772931087450.4475,0.0476,-0.6257,-0.7437
1772931087450.4475,0.0467,-0.6238,-0.7428
1772931087450.4475,0.0488,-0.6217,-0.7421
1772931087450.4475,0.0487,-0.6227,-0.7438
1772931087450.4475,0.0482,-0.6238,-0.7437
1772931087450.4475,0.0486,-0.6256,-0.7448
1772931087450.4475,0.0502,-0.6262,-0.7442
1772931087465.8997,0.0493,-0.6277,-0.7416
1772931087465.8997,0.0487,-0.6273,-0.7458
1772931087465.8997,0.0463,-0.6263,-0.749
1772931087465.8997,0.0471,-0.6268,-0.7487
1772931087465.8997,0.0436,-0.6278,-0.751
1772931087465.8997,0.0426,-0.6265,-0.7538
1772931087465.8997,0.0389,-0.6253,-0.7579
1772931087465.8997,0.0396,-0.6299,-0.7551
1772931087481.4624,0.0457,-0.6329,-0.7537
1772931087481.4624,0.047,-0.6332,-0.7507
1772931087481.4624,0.0509,-0.6332,-0.7516
1772931087481.4624,0.0523,-0.6338,-0.7479
1772931087481.4624,0.0541,-0.6319,-0.7449
1772931087481.4624,0.0533,-0.6305,-0.7448
1772931087481.4624,0.0514,-0.6303,-0.7433
1772931087481.4624,0.0492,-0.6312,-0.7419
1772931087496.951,0.0476,-0.6341,-0.7424
1772931087496.951,0.0433,-0.6339,-0.748
1772931087496.951,0.0429,-0.6367,-0.746
1772931087496.951,0.0412,-0.6351,-0.7453
1772931087496.951,0.0425,-0.6376,-0.7454
1772931087513.0632,0.0425,-0.6356,-0.746
1772931087513.0632,0.0411,-0.6381,-0.7477
1772931087513.0632,0.039,-0.6365,-0.7464
1772931087513.0632,0.0401,-0.6422,-0.7466
1772931087513.0632,0.0376,-0.6396,-0.7483
1772931087513.0632,0.0432,-0.6381,-0.7476
1772931087513.0632,0.0434,-0.6381,-0.7491
1772931087513.0632,0.0407,-0.6381,-0.7482
1772931087529.3396,0.0447,-0.6403,-0.7497
1772931087529.3396,0.0428,-0.6384,-0.7502
1772931087529.3396,0.0442,-0.6382,-0.7487
1772931087529.3396,0.0449,-0.64,-0.752
1772931087529.3396,0.0439,-0.6384,-0.7492
1772931087529.3396,0.0435,-0.638,-0.7514
1772931087529.3396,0.045,-0.6388,-0.7488
1772931087529.3396,0.0457,-0.6384,-0.7506
1772931087544.9268,0.0454,-0.6349,-0.7477
1772931087544.9268,0.0476,-0.6377,-0.7503
1772931087544.9268,0.0473,-0.6374,-0.7521
1772931087544.9268,0.047,-0.6358,-0.7505
1772931087544.9268,0.0338,-0.6387,-0.7487
1772931087544.9268,0.0497,-0.6365,-0.7468
1772931087544.9268,0.0506,-0.637,-0.7476
1772931087544.9268,0.0516,-0.6365,-0.7448
1772931087559.8513,0.0506,-0.6364,-0.748
1772931087559.8513,0.0495,-0.6316,-0.7498
1772931087559.8513,0.0523,-0.6309,-0.7476
1772931087559.8513,0.05,-0.6314,-0.7496
1772931087559.8513,0.0497,-0.6309,-0.7466
1772931087559.8513,0.0484,-0.6312,-0.747
1772931087559.8513,0.0484,-0.6316,-0.749
1772931087559.8513,0.0474,-0.6323,-0.7493
1772931087575.468,0.0486,-0.6303,-0.749
1772931087575.468,0.0486,-0.6317,-0.7481
1772931087575.468,0.0492,-0.6359,-0.7499
1772931087575.468,0.0491,-0.6343,-0.7485
1772931087575.468,0.0488,-0.6367,-0.7468
1772931087575.468,0.0484,-0.6362,-0.7465
1772931087575.468,0.0461,-0.6356,-0.7476
1772931087575.468,0.0467,-0.6356,-0.7466
1772931087590.3713,0.0472,-0.6356,-0.7464
1772931087590.3713,0.0458,-0.6335,-0.7485
1772931087590.3713,0.0436,-0.6355,-0.7462
1772931087590.3713,0.0435,-0.6317,-0.746
1772931087590.3713,0.0472,-0.6324,-0.7483
1772931087590.3713,0.0446,-0.6306,-0.7458
1772931087605.7417,0.0451,-0.6299,-0.7474
1772931087605.7417,0.045,-0.6284,-0.7477
1772931087605.7417,0.0457,-0.6306,-0.7458
1772931087605.7417,0.0487,-0.6298,-0.7459
1772931087605.7417,0.0462,-0.6339,-0.7464
1772931087605.7417,0.0497,-0.6322,-0.7458
1772931087605.7417,0.0467,-0.6317,-0.7439
1772931087605.7417,0.0447,-0.6326,-0.7448
1772931087621.689,0.0446,-0.6306,-0.7447
1772931087621.689,0.0456,-0.6309,-0.7433
1772931087621.689,0.0466,-0.6304,-0.7438
1772931087621.689,0.0468,-0.6303,-0.7439
1772931087621.689,0.0475,-0.632,-0.7445
1772931087621.689,0.0479,-0.6317,-0.7434
1772931087621.689,0.0481,-0.6332,-0.7446
1772931087621.689,0.048,-0.6323,-0.7425
1772931087637.2827,0.0447,-0.634,-0.7434
1772931087637.2827,0.0476,-0.6327,-0.7445
1772931087637.2827,0.0456,-0.6319,-0.7445
1772931087637.2827,0.0451,-0.6314,-0.7442
1772931087637.2827,0.0454,-0.6313,-0.7443
1772931087637.2827,0.0473,-0.6305,-0.7444
1772931087637.2827,0.0449,-0.6307,-0.7449
1772931087637.2827,0.0463,-0.6309,-0.744
1772931087653.534,0.0474,-0.6288,-0.7452
1772931087653.534,0.0464,-0.6288,-0.7435
1772931087653.534,0.0479,-0.6299,-0.7462
1772931087653.534,0.0459,-0.6297,-0.7446
1772931087653.534,0.0454,-0.6301,-0.7466
1772931087653.534,0.0448,-0.6311,-0.7463
1772931087653.534,0.0448,-0.6342,-0.7465
1772931087653.534,0.0449,-0.6349,-0.7458
1772931087668.8657,0.0445,-0.634,-0.7466
1772931087668.8657,0.0448,-0.6323,-0.7458
1772931087668.8657,0.0431,-0.6319,-0.7471
1772931087668.8657,0.0418,-0.6351,-0.7472
1772931087668.8657,0.0416,-0.6315,-0.748
1772931087684.8647,0.0429,-0.6328,-0.7469
1772931087684.8647,0.0414,-0.6323,-0.7483
1772931087684.8647,0.0399,-0.6337,-0.7457
1772931087684.8647,0.0427,-0.6312,-0.7479
1772931087684.8647,0.04,-0.6317,-0.7461
1772931087684.8647,0.0447,-0.6312,-0.7474
1772931087684.8647,0.0405,-0.6299,-0.7477
1772931087684.8647,0.0456,-0.6294,-0.7464
1772931087700.4316,0.0435,-0.6279,-0.7455
1772931087700.4316,0.0479,-0.6299,-0.7468
1772931087700.4316,0.0458,-0.6308,-0.7457
1772931087700.4316,0.0459,-0.6311,-0.7464
1772931087700.4316,0.046,-0.6309,-0.748
1772931087700.4316,0.0492,-0.6339,-0.7477
1772931087700.4316,0.0478,-0.6365,-0.7432
1772931087700.4316,0.0495,-0.6359,-0.7475
1772931087715.9556,0.0498,-0.6367,-0.7443
1772931087715.9556,0.0482,-0.6362,-0.7433
1772931087715.9556,0.0489,-0.6368,-0.7454
1772931087715.9556,0.0474,-0.6364,-0.7443
1772931087715.9556,0.049,-0.6354,-0.7463
1772931087715.9556,0.047,-0.6383,-0.7461
1772931087715.9556,0.0472,-0.6372,-0.7483
1772931087715.9556,0.0497,-0.6394,-0.7482
1772931087731.1697,0.0481,-0.6389,-0.7452
1772931087731.1697,0.0466,-0.6373,-0.7499
1772931087731.1697,0.0459,-0.6364,-0.7475
1772931087731.1697,0.0471,-0.6381,-0.7346
1772931087731.1697,0.0454,-0.6359,-0.7467
1772931087731.1697,0.0484,-0.6343,-0.7491
1772931087731.1697,0.0464,-0.6384,-0.7493
1772931087731.1697,0.0474,-0.6367,-0.7464
1772931087746.7195,0.0447,-0.636,-0.7492
1772931087746.7195,0.0442,-0.6371,-0.7493
1772931087746.7195,0.0448,-0.6354,-0.7493
1772931087746.7195,0.0435,-0.6348,-0.7462
1772931087746.7195,0.0453,-0.6338,-0.7457
1772931087761.777,0.0459,-0.6357,-0.7481
1772931087761.777,0.0454,-0.6331,-0.7457
1772931087761.777,0.0464,-0.6331,-0.7468
1772931087761.777,0.0461,-0.631,-0.7435
1772931087761.777,0.0483,-0.631,-0.7432
1772931087761.777,0.0504,-0.6308,-0.7444
1772931087761.777,0.0502,-0.6314,-0.7444
1772931087761.777,0.0501,-0.6344,-0.7411
1772931087776.8035,0.0514,-0.6304,-0.7444
1772931087776.8035,0.0528,-0.6301,-0.7444
1772931087776.8035,0.0503,-0.6319,-0.743
1772931087776.8035,0.0507,-0.6331,-0.7433
1772931087776.8035,0.047,-0.6373,-0.7444
1772931087776.8035,0.0492,-0.6365,-0.7434
1772931087776.8035,0.0468,-0.6387,-0.7451
1772931087776.8035,0.0459,-0.6367,-0.7448
1772931087792.293,0.0459,-0.6355,-0.7444
1772931087792.293,0.0459,-0.6354,-0.7445
1772931087792.293,0.0456,-0.6374,-0.7461
1772931087792.293,0.0472,-0.6362,-0.7464
1772931087792.293,0.0453,-0.6335,-0.7468
1772931087792.293,0.0465,-0.6326,-0.7455
1772931087792.293,0.0455,-0.6315,-0.7449
1772931087792.293,0.0464,-0.6345,-0.7453
1772931087807.8562,0.0443,-0.6327,-0.7465
1772931087807.8562,0.0464,-0.6343,-0.7466
1772931087807.8562,0.0443,-0.6329,-0.7458
1772931087807.8562,0.0464,-0.6335,-0.7457
1772931087807.8562,0.0466,-0.6333,-0.7502
1772931087807.8562,0.0448,-0.6366,-0.7466
1772931087823.9834,0.0429,-0.6353,-0.7494
1772931087823.9834,0.0427,-0.6331,-0.7502
1772931087823.9834,0.0428,-0.634,-0.748
1772931087823.9834,0.0442,-0.6315,-0.7494
1772931087823.9834,0.0418,-0.6315,-0.7488
1772931087823.9834,0.0425,-0.6321,-0.751
1772931087823.9834,0.0456,-0.6309,-0.7496
1772931087823.9834,0.045,-0.6328,-0.7486
1772931087839.6206,0.0443,-0.6351,-0.7493
1772931087839.6206,0.0448,-0.6333,-0.7498
1772931087839.6206,0.0448,-0.6317,-0.7493
1772931087839.6206,0.0462,-0.6334,-0.7478
1772931087839.6206,0.0483,-0.6333,-0.7493
1772931087839.6206,0.0462,-0.6299,-0.7476
1772931087839.6206,0.0466,-0.6341,-0.7487
1772931087839.6206,0.047,-0.6318,-0.7516
1772931087854.7498,0.0459,-0.6312,-0.7463
1772931087854.7498,0.047,-0.6312,-0.7493
1772931087854.7498,0.0464,-0.6318,-0.7465
1772931087854.7498,0.048,-0.6331,-0.7483
1772931087854.7498,0.0465,-0.6344,-0.7486
1772931087854.7498,0.047,-0.6354,-0.7462
1772931087854.7498,0.0455,-0.6359,-0.7455
1772931087854.7498,0.0461,-0.6379,-0.744
1772931087869.909,0.0462,-0.6366,-0.7457
1772931087869.909,0.0456,-0.6361,-0.7457
1772931087869.909,0.0431,-0.6368,-0.7449
1772931087869.909,0.0448,-0.6385,-0.7428
1772931087869.909,0.0457,-0.637,-0.7455
1772931087869.909,0.0442,-0.6366,-0.745
1772931087869.909,0.0431,-0.6376,-0.7454
1772931087869.909,0.044,-0.6363,-0.7446
1772931087885.6675,0.0432,-0.6362,-0.7453
1772931087885.6675,0.0464,-0.638,-0.7449
1772931087885.6675,0.0463,-0.6362,-0.7453
1772931087885.6675,0.0464,-0.6369,-0.7447
1772931087885.6675,0.0435,-0.6342,-0.7446
1772931087901.574,0.0452,-0.6335,-0.7435
1772931087901.574,0.0448,-0.6345,-0.7444
1772931087901.574,0.0461,-0.6332,-0.7447
1772931087901.574,0.0443,-0.6336,-0.7452
1772931087901.574,0.0456,-0.6355,-0.7428
1772931087901.574,0.0453,-0.6345,-0.7419
1772931087901.574,0.0459,-0.6329,-0.7404
1772931087901.574,0.0418,-0.6339,-0.7445
1772931087917.6672,0.0433,-0.6332,-0.7409
1772931087917.6672,0.0451,-0.6351,-0.7427
1772931087917.6672,0.0426,-0.6318,-0.7413
1772931087917.6672,0.0437,-0.6326,-0.7416
1772931087917.6672,0.0456,-0.6313,-0.7405
1772931087917.6672,0.0445,-0.6317,-0.7399
1772931087917.6672,0.0451,-0.6336,-0.7435
1772931087917.6672,0.0425,-0.6328,-0.7421
1772931087933.6978,0.0459,-0.6332,-0.744
1772931087933.6978,0.0448,-0.6315,-0.7402
1772931087933.6978,0.0458,-0.6313,-0.7415
1772931087933.6978,0.0453,-0.6352,-0.7416
1772931087933.6978,0.0418,-0.6368,-0.7391
1772931087933.6978,0.0435,-0.6339,-0.7395
1772931087933.6978,0.0447,-0.6312,-0.7453
1772931087933.6978,0.0426,-0.6339,-0.7401
1772931087949.786,0.0415,-0.6331,-0.7424
1772931087949.786,0.044,-0.6327,-0.7433
1772931087949.786,0.0465,-0.6332,-0.746
1772931087949.786,0.0451,-0.636,-0.7446
1772931087949.786,0.0457,-0.6353,-0.7443
1772931087949.786,0.051,-0.6354,-0.7447
1772931087949.786,0.0493,-0.6379,-0.7438
1772931087949.786,0.0478,-0.6371,-0.746
1772931087966.125,0.047,-0.6368,-0.7402
1772931087966.125,0.0488,-0.6373,-0.7417
1772931087966.125,0.047,-0.6371,-0.7404
1772931087966.125,0.0471,-0.6365,-0.7374
1772931087966.125,0.0479,-0.6376,-0.7393
1772931087966.125,0.052,-0.64,-0.7374
1772931087966.125,0.0495,-0.6379,-0.7388
1772931087966.125,0.0481,-0.6387,-0.735
1772931087981.6992,0.0452,-0.6371,-0.739
1772931087981.6992,0.0459,-0.6367,-0.7361
1772931087981.6992,0.0427,-0.6373,-0.7363
1772931087981.6992,0.0442,-0.6385,-0.7404
1772931087981.6992,0.0398,-0.6343,-0.7424
1772931087981.6992,0.0386,-0.6343,-0.7471
1772931087981.6992,0.0364,-0.6315,-0.7512
1772931087981.6992,0.0371,-0.6309,-0.7568
1772931087996.9202,0.0366,-0.6339,-0.7597
1772931087996.9202,0.0361,-0.6346,-0.7594
1772931087996.9202,0.0402,-0.6349,-0.7573
1772931087996.9202,0.0434,-0.633,-0.7582
1772931087996.9202,0.04,-0.6306,-0.7583
1772931088011.6553,0.0423,-0.6267,-0.7637
1772931088011.6553,0.0404,-0.621,-0.7653
1772931088011.6553,0.0396,-0.6212,-0.7634
1772931088011.6553,0.0406,-0.623,-0.7626
1772931088011.6553,0.0468,-0.6265,-0.7632
1772931088011.6553,0.0481,-0.6311,-0.7605
1772931088011.6553,0.0515,-0.6351,-0.7601
1772931088011.6553,0.054,-0.6406,-0.7576
1772931088026.6455,0.0568,-0.64,-0.7536
1772931088026.6455,0.0559,-0.6421,-0.7516
1772931088026.6455,0.0556,-0.641,-0.7496
1772931088026.6455,0.0553,-0.6404,-0.7484
1772931088026.6455,0.0533,-0.6396,-0.7482
1772931088026.6455,0.052,-0.6373,-0.7421
1772931088026.6455,0.049,-0.6349,-0.7428
1772931088026.6455,0.0474,-0.6326,-0.7442
1772931088042.242,0.0442,-0.6348,-0.7413
1772931088042.242,0.0463,-0.6349,-0.7352
1772931088042.242,0.0453,-0.6378,-0.7335
1772931088042.242,0.0486,-0.6398,-0.7309
1772931088042.242,0.0478,-0.6435,-0.7278
1772931088042.242,0.0482,-0.6436,-0.7239
1772931088042.242,0.0468,-0.6408,-0.7255
1772931088042.242,0.0443,-0.6437,-0.7224
1772931088057.8806,0.0414,-0.6422,-0.722
1772931088057.8806,0.0392,-0.6408,-0.7255
1772931088057.8806,0.0368,-0.6405,-0.7258
1772931088057.8806,0.0381,-0.6401,-0.7254
1772931088057.8806,0.0364,-0.6371,-0.7274
1772931088057.8806,0.0365,-0.6364,-0.728
1772931088073.0535,0.0378,-0.6348,-0.7332
1772931088073.0535,0.0361,-0.6344,-0.7358
1772931088073.0535,0.0346,-0.6371,-0.7382
1772931088073.0535,0.0351,-0.6316,-0.7415
1772931088073.0535,0.0367,-0.6346,-0.7416
1772931088073.0535,0.037,-0.6345,-0.747
1772931088073.0535,0.034,-0.6334,-0.7477
1772931088073.0535,0.0364,-0.6343,-0.7501
1772931088088.634,0.0397,-0.6357,-0.7494
1772931088088.634,0.0417,-0.6361,-0.7514
1772931088088.634,0.0415,-0.6359,-0.7536
1772931088088.634,0.0443,-0.6355,-0.7549
1772931088088.634,0.0468,-0.6359,-0.7584
1772931088088.634,0.0483,-0.6347,-0.7557
1772931088088.634,0.0491,-0.6367,-0.7601
1772931088088.634,0.0519,-0.6324,-0.7586
1772931088104.7617,0.0526,-0.6346,-0.7598
1772931088104.7617,0.0531,-0.6367,-0.7585
1772931088104.7617,0.0543,-0.6344,-0.7574
1772931088104.7617,0.0562,-0.6357,-0.7549
1772931088104.7617,0.0552,-0.6365,-0.757
1772931088104.7617,0.0575,-0.6348,-0.7562
1772931088104.7617,0.0561,-0.6328,-0.7554
1772931088104.7617,0.0572,-0.634,-0.7562
1772931088121.3494,0.0561,-0.6337,-0.7524
1772931088121.3494,0.0555,-0.6361,-0.7536
1772931088121.3494,0.0532,-0.6349,-0.7516
1772931088121.3494,0.052,-0.6348,-0.7504
1772931088121.3494,0.0512,-0.6358,-0.7512
1772931088121.3494,0.0489,-0.6387,-0.751
1772931088121.3494,0.0503,-0.6403,-0.7491
1772931088121.3494,0.0478,-0.641,-0.752
1772931088136.4453,0.0482,-0.6393,-0.7523
1772931088136.4453,0.0484,-0.6386,-0.7492
1772931088136.4453,0.046,-0.6383,-0.7499
1772931088136.4453,0.0432,-0.6416,-0.7489
1772931088136.4453,0.0437,-0.64,-0.7493
1772931088136.4453,0.0422,-0.6396,-0.7498
1772931088136.4453,0.0431,-0.6404,-0.749
1772931088136.4453,0.0434,-0.6403,-0.7643
1772931088151.5974,0.0416,-0.6373,-0.7488
1772931088151.5974,0.0422,-0.6389,-0.7462
1772931088151.5974,0.046,-0.6376,-0.7469
1772931088151.5974,0.0447,-0.6382,-0.7425
1772931088151.5974,0.0425,-0.6357,-0.7433
1772931088167.2607,0.0442,-0.6354,-0.7407
1772931088167.2607,0.0452,-0.637,-0.7404
1772931088167.2607,0.0465,-0.6336,-0.7366
1772931088167.2607,0.0479,-0.6315,-0.7358
1772931088167.2607,0.0487,-0.632,-0.735
1772931088167.2607,0.0479,-0.6315,-0.7365
1772931088167.2607,0.0481,-0.6301,-0.7318
1772931088167.2607,0.0464,-0.6304,-0.7348
1772931088183.091,0.0453,-0.6307,-0.7344
1772931088183.091,0.0468,-0.6295,-0.7382
1772931088183.091,0.0453,-0.6271,-0.7398
1772931088183.091,0.0465,-0.627,-0.7377
1772931088183.091,0.0443,-0.6256,-0.7385
1772931088183.091,0.0436,-0.624,-0.74
1772931088183.091,0.043,-0.626,-0.7399
1772931088183.091,0.0426,-0.6249,-0.7427
1772931088198.72,0.0439,-0.6253,-0.744
1772931088198.72,0.0446,-0.6267,-0.7457
1772931088198.72,0.0446,-0.6265,-0.7421
1772931088198.72,0.0457,-0.6271,-0.7446
1772931088198.72,0.0462,-0.6262,-0.7464
1772931088198.72,0.0468,-0.6246,-0.7441
1772931088198.72,0.0464,-0.6263,-0.7472
1772931088198.72,0.0475,-0.6262,-0.7461
1772931088213.8733,0.0497,-0.6274,-0.7491
1772931088213.8733,0.0459,-0.6271,-0.7482
1772931088213.8733,0.0619,-0.6244,-0.7486
1772931088213.8733,0.0462,-0.6254,-0.7493
1772931088213.8733,0.0449,-0.6239,-0.7535
1772931088213.8733,0.0447,-0.624,-0.756
1772931088213.8733,0.0432,-0.6243,-0.7587
1772931088213.8733,0.045,-0.629,-0.7563
1772931088229.002,0.0489,-0.6318,-0.756
1772931088229.002,0.0492,-0.6346,-0.7537
1772931088229.002,0.0548,-0.635,-0.7507
1772931088229.002,0.0548,-0.6346,-0.749
1772931088229.002,0.0562,-0.634,-0.7477
1772931088244.48,0.054,-0.6328,-0.7466
1772931088244.48,0.05,-0.632,-0.7445
1772931088244.48,0.0488,-0.6314,-0.7463
1772931088244.48,0.0479,-0.6326,-0.742
1772931088244.48,0.0422,-0.6351,-0.7431
1772931088244.48,0.042,-0.6387,-0.7421
1772931088244.48,0.0426,-0.6398,-0.7419
1772931088244.48,0.0409,-0.6407,-0.7441
1772931088259.6099,0.0388,-0.6429,-0.7443
1772931088259.6099,0.0374,-0.6423,-0.7454
1772931088259.6099,0.0396,-0.6406,-0.75
1772931088259.6099,0.0395,-0.643,-0.7466
1772931088259.6099,0.0381,-0.64,-0.7486
1772931088259.6099,0.0409,-0.6392,-0.7474
1772931088259.6099,0.0422,-0.6363,-0.7481
1772931088259.6099,0.0439,-0.6396,-0.7481
1772931088275.5166,0.0461,-0.6374,-0.7498
1772931088275.5166,0.0398,-0.6383,-0.7468
1772931088275.5166,0.0432,-0.6381,-0.7493
1772931088275.5166,0.0428,-0.6387,-0.7499
1772931088275.5166,0.0448,-0.6401,-0.7551
1772931088275.5166,0.0415,-0.6377,-0.7547
1772931088275.5166,0.0432,-0.637,-0.7526
1772931088275.5166,0.0428,-0.6357,-0.7555
1772931088291.6428,0.0429,-0.6359,-0.755
1772931088291.6428,0.044,-0.6371,-0.7531
1772931088291.6428,0.0444,-0.6354,-0.7536
1772931088291.6428,0.045,-0.6359,-0.753
1772931088291.6428,0.043,-0.6358,-0.7513
1772931088291.6428,0.0453,-0.6363,-0.748
1772931088291.6428,0.0455,-0.6329,-0.7462
1772931088291.6428,0.0465,-0.6334,-0.7482
1772931088307.7078,0.0483,-0.6334,-0.7463
1772931088307.7078,0.05,-0.6345,-0.7459
1772931088307.7078,0.0506,-0.6343,-0.7446
1772931088307.7078,0.0516,-0.632,-0.7449
1772931088307.7078,0.0529,-0.6312,-0.7457
1772931088307.7078,0.0483,-0.6326,-0.7475
1772931088322.8298,0.0489,-0.6321,-0.7479
1772931088322.8298,0.049,-0.6326,-0.7455
1772931088322.8298,0.0498,-0.6323,-0.744
1772931088322.8298,0.0484,-0.6346,-0.7465
1772931088322.8298,0.0476,-0.6348,-0.7473
1772931088322.8298,0.0464,-0.6346,-0.745
1772931088322.8298,0.0453,-0.6354,-0.742
1772931088322.8298,0.045,-0.634,-0.7479
1772931088338.9644,0.046,-0.6356,-0.7458
1772931088338.9644,0.0442,-0.6364,-0.7444
1772931088338.9644,0.0446,-0.6353,-0.7455
1772931088338.9644,0.0462,-0.6356,-0.7435
1772931088338.9644,0.0464,-0.6337,-0.7458
1772931088338.9644,0.0456,-0.6351,-0.744
1772931088338.9644,0.0433,-0.6326,-0.7455
1772931088338.9644,0.0465,-0.6309,-0.7448
1772931088354.4216,0.0456,-0.6298,-0.7438
1772931088354.4216,0.0443,-0.6265,-0.7447
1772931088354.4216,0.0457,-0.6293,-0.7457
1772931088354.4216,0.0472,-0.6293,-0.7443
1772931088354.4216,0.0448,-0.6281,-0.7437
1772931088354.4216,0.047,-0.629,-0.7456
1772931088354.4216,0.0498,-0.6288,-0.7454
1772931088354.4216,0.0464,-0.6295,-0.7462
1772931088369.714,0.0467,-0.6288,-0.7424
1772931088369.714,0.0467,-0.6314,-0.7452
1772931088369.714,0.047,-0.6298,-0.746
1772931088369.714,0.0469,-0.6295,-0.7424
1772931088369.714,0.0473,-0.6331,-0.7473
1772931088369.714,0.0486,-0.6299,-0.7452
1772931088369.714,0.0454,-0.6328,-0.7431
1772931088369.714,0.0445,-0.6283,-0.7451
1772931088384.995,0.044,-0.6298,-0.7437
1772931088384.995,0.044,-0.6306,-0.7471
1772931088384.995,0.0437,-0.6307,-0.7459
1772931088384.995,0.0448,-0.6305,-0.7454
1772931088384.995,0.0448,-0.6299,-0.7458
1772931088400.4011,0.044,-0.6304,-0.7428
1772931088400.4011,0.0455,-0.6301,-0.7451
1772931088400.4011,0.0455,-0.6301,-0.7444
1772931088400.4011,0.0447,-0.6304,-0.7454
1772931088400.4011,0.0427,-0.6309,-0.7468
1772931088400.4011,0.0432,-0.6325,-0.747
1772931088400.4011,0.0439,-0.6303,-0.7471
1772931088400.4011,0.0437,-0.6306,-0.7483
1772931088415.6138,0.0437,-0.6319,-0.7471
1772931088415.6138,0.0451,-0.632,-0.7461
1772931088415.6138,0.0461,-0.6315,-0.7434
1772931088415.6138,0.044,-0.6348,-0.7486
1772931088415.6138,0.0451,-0.6353,-0.7486
1772931088415.6138,0.0438,-0.6326,-0.7468
1772931088415.6138,0.0404,-0.6334,-0.7485
1772931088415.6138,0.0415,-0.6333,-0.7469
1772931088431.318,0.0408,-0.6344,-0.7476
1772931088431.318,0.0424,-0.6337,-0.7469
1772931088431.318,0.0424,-0.6343,-0.7471
1772931088431.318,0.0453,-0.6347,-0.748
1772931088431.318,0.0447,-0.6335,-0.7471
1772931088431.318,0.0425,-0.6323,-0.7482
1772931088431.318,0.0437,-0.6321,-0.7466
1772931088431.318,0.0448,-0.6334,-0.7475
1772931088446.905,0.0433,-0.6334,-0.7467
1772931088446.905,0.0448,-0.6317,-0.7466
1772931088446.905,0.0433,-0.631,-0.7469
1772931088446.905,0.0448,-0.6325,-0.7462
1772931088446.905,0.0445,-0.6318,-0.7466
1772931088462.7808,0.0461,-0.6324,-0.7468
1772931088462.7808,0.0471,-0.6341,-0.7455
1772931088462.7808,0.0467,-0.6333,-0.7448
1772931088462.7808,0.046,-0.6344,-0.7466
1772931088462.7808,0.046,-0.6328,-0.7451
1772931088462.7808,0.0489,-0.6343,-0.748
1772931088462.7808,0.0479,-0.6344,-0.7456
1772931088462.7808,0.0462,-0.6319,-0.7464
1772931088478.6985,0.0461,-0.6354,-0.7469
1772931088478.6985,0.0451,-0.6349,-0.7458
1772931088478.6985,0.0473,-0.6339,-0.7465
1772931088478.6985,0.0458,-0.635,-0.7432
1772931088478.6985,0.0469,-0.637,-0.7471
1772931088478.6985,0.0473,-0.6364,-0.746
1772931088478.6985,0.0463,-0.6349,-0.7459
1772931088478.6985,0.0483,-0.6382,-0.7449
1772931088493.3442,0.047,-0.6382,-0.7486
1772931088493.3442,0.0465,-0.6371,-0.7452
1772931088493.3442,0.0469,-0.6345,-0.7491
1772931088493.3442,0.0481,-0.6328,-0.7449
1772931088493.3442,0.0478,-0.6378,-0.7463
1772931088493.3442,0.0478,-0.6353,-0.7469
1772931088493.3442,0.0463,-0.6359,-0.7451
1772931088493.3442,0.0467,-0.6343,-0.7503
1772931088508.9348,0.046,-0.6359,-0.7474
1772931088508.9348,0.0493,-0.637,-0.7459
1772931088508.9348,0.0489,-0.6326,-0.7467
1772931088508.9348,0.0451,-0.6334,-0.749
1772931088508.9348,0.0489,-0.6327,-0.7452
1772931088508.9348,0.0474,-0.6327,-0.7465
1772931088508.9348,0.047,-0.6324,-0.7458
1772931088508.9348,0.0448,-0.6334,-0.7466
1772931088525.5635,0.0462,-0.6327,-0.7476
1772931088525.5635,0.0479,-0.6342,-0.7463
1772931088525.5635,0.0487,-0.6318,-0.7469
1772931088525.5635,0.0486,-0.6339,-0.7431
1772931088525.5635,0.0486,-0.6344,-0.7457
1772931088525.5635,0.0484,-0.6345,-0.7456
1772931088525.5635,0.0471,-0.6353,-0.7427
1772931088525.5635,0.0479,-0.6346,-0.7471
1772931088541.59,0.0471,-0.6351,-0.7457
1772931088541.59,0.0487,-0.6338,-0.7465
1772931088541.59,0.0475,-0.6365,-0.7464
1772931088541.59,0.0453,-0.6347,-0.7479
1772931088541.59,0.0459,-0.6366,-0.7469
1772931088541.59,0.0473,-0.6346,-0.7462
1772931088541.59,0.0476,-0.6335,-0.7481
1772931088541.59,0.0419,-0.6345,-0.7504
1772931088556.7444,0.0443,-0.6357,-0.7509
1772931088556.7444,0.0444,-0.6329,-0.7486
1772931088556.7444,0.0437,-0.636,-0.7471
1772931088556.7444,0.0415,-0.6358,-0.7493
1772931088556.7444,0.0435,-0.6343,-0.7651
1772931088556.7444,0.0426,-0.6345,-0.751
1772931088572.3281,0.0393,-0.6317,-0.7515
1772931088572.3281,0.0398,-0.6318,-0.7501
1772931088572.3281,0.0402,-0.6317,-0.7477
1772931088572.3281,0.0412,-0.6317,-0.754
1772931088572.3281,0.0388,-0.6327,-0.7524
1772931088572.3281,0.0425,-0.632,-0.7485
1772931088572.3281,0.0407,-0.6334,-0.7524
1772931088572.3281,0.0429,-0.6343,-0.7496
1772931088587.6814,0.0428,-0.631,-0.7454
1772931088587.6814,0.0434,-0.632,-0.7497
1772931088587.6814,0.0431,-0.6318,-0.7494
1772931088587.6814,0.0465,-0.6292,-0.7451
1772931088587.6814,0.0457,-0.632,-0.7466
1772931088587.6814,0.0473,-0.6287,-0.7444
1772931088587.6814,0.0489,-0.6298,-0.746
1772931088587.6814,0.0475,-0.6287,-0.7471
1772931088603.7144,0.0483,-0.6308,-0.7452
1772931088603.7144,0.0489,-0.6332,-0.7442
1772931088603.7144,0.0498,-0.6331,-0.7429
1772931088603.7144,0.0511,-0.6326,-0.7471
1772931088603.7144,0.0502,-0.6327,-0.7452
1772931088603.7144,0.0482,-0.6318,-0.7465
1772931088603.7144,0.0509,-0.6344,-0.7453
1772931088603.7144,0.049,-0.6342,-0.7429
1772931088618.9993,0.0473,-0.6357,-0.7437
1772931088618.9993,0.0465,-0.6346,-0.7467
1772931088618.9993,0.046,-0.6345,-0.744
1772931088618.9993,0.0464,-0.6328,-0.7413
1772931088618.9993,0.0432,-0.6322,-0.7456
1772931088634.6184,0.0437,-0.6298,-0.7432
1772931088634.6184,0.0437,-0.6303,-0.7437
1772931088634.6184,0.045,-0.6328,-0.746
1772931088634.6184,0.0445,-0.6331,-0.7458
1772931088634.6184,0.0472,-0.6343,-0.7453
1772931088634.6184,0.0453,-0.6335,-0.7432
1772931088634.6184,0.047,-0.6352,-0.7455
1772931088634.6184,0.0462,-0.6328,-0.7465
1772931088649.6064,0.0453,-0.6327,-0.748
1772931088649.6064,0.0459,-0.632,-0.7459
1772931088649.6064,0.0457,-0.6331,-0.7457
1772931088649.6064,0.048,-0.6334,-0.7474
1772931088649.6064,0.0471,-0.6336,-0.7471
1772931088649.6064,0.0472,-0.632,-0.7434
1772931088649.6064,0.0468,-0.6293,-0.7468
1772931088649.6064,0.0466,-0.6347,-0.7469
1772931088664.8093,0.0451,-0.6334,-0.7458
1772931088664.8093,0.0436,-0.6354,-0.7455
1772931088664.8093,0.044,-0.6348,-0.7468
1772931088664.8093,0.0432,-0.6357,-0.7477
1772931088664.8093,0.0432,-0.6364,-0.7435
1772931088664.8093,0.0443,-0.6328,-0.7467
1772931088664.8093,0.0442,-0.632,-0.7458
1772931088664.8093,0.043,-0.6353,-0.746
1772931088680.605,0.0409,-0.6334,-0.7453
1772931088680.605,0.0425,-0.6357,-0.7428
1772931088680.605,0.042,-0.6373,-0.7453
1772931088680.605,0.0424,-0.6354,-0.7436
1772931088680.605,0.0417,-0.6359,-0.7438
1772931088680.605,0.0439,-0.634,-0.743
1772931088680.605,0.0411,-0.6363,-0.7423
1772931088680.605,0.0413,-0.6351,-0.7421
1772931088696.6985,0.0458,-0.6342,-0.7409
1772931088696.6985,0.0453,-0.6371,-0.7398
1772931088696.6985,0.0457,-0.6359,-0.7401
1772931088696.6985,0.0473,-0.6335,-0.7411
1772931088696.6985,0.0447,-0.632,-0.739
1772931088712.0483,0.0474,-0.6324,-0.7416
1772931088712.0483,0.0459,-0.6336,-0.7388
1772931088712.0483,0.0444,-0.6317,-0.7419
1772931088712.0483,0.0462,-0.6348,-0.7405
1772931088712.0483,0.0465,-0.6355,-0.7447
1772931088712.0483,0.0451,-0.6339,-0.7465
1772931088712.0483,0.0451,-0.638,-0.747
1772931088712.0483,0.0464,-0.6372,-0.7463
1772931088727.648,0.0495,-0.6398,-0.7418
1772931088727.648,0.0472,-0.6364,-0.7435
1772931088727.648,0.0455,-0.6373,-0.7408
1772931088727.648,0.043,-0.6353,-0.7413
1772931088727.648,0.0464,-0.6364,-0.7379
1772931088727.648,0.0461,-0.6366,-0.7378
1772931088727.648,0.047,-0.6349,-0.7387
1772931088727.648,0.0489,-0.6345,-0.7363
1772931088742.6743,0.0475,-0.6359,-0.7349
1772931088742.6743,0.0478,-0.6384,-0.7352
1772931088742.6743,0.0444,-0.6357,-0.7344
1772931088742.6743,0.0426,-0.6357,-0.7358
1772931088742.6743,0.0434,-0.6375,-0.7377
1772931088742.6743,0.0406,-0.633,-0.7426
1772931088742.6743,0.0374,-0.6329,-0.7465
1772931088742.6743,0.0343,-0.628,-0.7526
1772931088757.8572,0.032,-0.6286,-0.7577
1772931088757.8572,0.0345,-0.6301,-0.7582
1772931088757.8572,0.0323,-0.6346,-0.7566
1772931088757.8572,0.0356,-0.6364,-0.761
1772931088757.8572,0.036,-0.6323,-0.7625
1772931088757.8572,0.036,-0.631,-0.7636
1772931088773.3303,0.0383,-0.6253,-0.7656
1772931088773.3303,0.0357,-0.6183,-0.7655
1772931088773.3303,0.0362,-0.6205,-0.7648
1772931088773.3303,0.0425,-0.6194,-0.7631
1772931088773.3303,0.049,-0.6259,-0.7621
1772931088773.3303,0.0509,-0.6279,-0.7596
1772931088773.3303,0.0561,-0.6342,-0.7585
1772931088773.3303,0.058,-0.6383,-0.7521
1772931088788.5862,0.0581,-0.642,-0.752
1772931088788.5862,0.063,-0.6433,-0.7501
1772931088788.5862,0.0616,-0.6395,-0.7472
1772931088788.5862,0.0584,-0.6393,-0.7453
1772931088788.5862,0.0551,-0.636,-0.7437
1772931088788.5862,0.0506,-0.6339,-0.7445
1772931088788.5862,0.0472,-0.6335,-0.7457
1772931088788.5862,0.0464,-0.6331,-0.7418
1772931088804.4583,0.0447,-0.6404,-0.7396
1772931088804.4583,0.0434,-0.641,-0.7349
1772931088804.4583,0.0439,-0.6429,-0.7338
1772931088804.4583,0.0436,-0.6439,-0.7303
1772931088804.4583,0.0439,-0.6437,-0.7289
1772931088804.4583,0.044,-0.6442,-0.7271
1772931088804.4583,0.0414,-0.6462,-0.7222
1772931088804.4583,0.0396,-0.6418,-0.7224
1772931088819.7073,0.0386,-0.6441,-0.7207
1772931088819.7073,0.0398,-0.6433,-0.7227
1772931088819.7073,0.0367,-0.6409,-0.7249
1772931088819.7073,0.0371,-0.6382,-0.7263
1772931088819.7073,0.0344,-0.639,-0.7266
1772931088819.7073,0.035,-0.6369,-0.7305
1772931088819.7073,0.0349,-0.636,-0.7351
1772931088819.7073,0.033,-0.6362,-0.7386
1772931088836.1343,0.0312,-0.6331,-0.7413
1772931088836.1343,0.031,-0.6325,-0.7441
1772931088836.1343,0.0321,-0.6338,-0.7464
1772931088836.1343,0.0332,-0.6317,-0.7473
1772931088836.1343,0.0328,-0.6309,-0.7505
1772931088836.1343,0.0347,-0.6309,-0.7501
1772931088836.1343,0.0359,-0.633,-0.7527
1772931088836.1343,0.0371,-0.632,-0.7565
1772931088851.7234,0.0393,-0.6317,-0.7553
1772931088851.7234,0.0439,-0.6323,-0.7553
1772931088851.7234,0.0463,-0.632,-0.7589
1772931088851.7234,0.0475,-0.6344,-0.758
1772931088851.7234,0.0473,-0.6333,-0.7605
1772931088867.311,0.0522,-0.635,-0.7592
1772931088867.311,0.0548,-0.6346,-0.7579
1772931088867.311,0.0554,-0.6322,-0.7574
1772931088867.311,0.0581,-0.6317,-0.7571
1772931088867.311,0.0596,-0.6315,-0.7585
1772931088867.311,0.0608,-0.6315,-0.7569
1772931088867.311,0.061,-0.6317,-0.7554
1772931088867.311,0.0586,-0.6329,-0.7559
1772931088882.3755,0.0599,-0.6321,-0.7553
1772931088882.3755,0.0595,-0.6324,-0.757
1772931088882.3755,0.0569,-0.631,-0.7526
1772931088882.3755,0.0576,-0.6317,-0.7548
1772931088882.3755,0.0565,-0.6337,-0.7562
1772931088882.3755,0.052,-0.6372,-0.7544
1772931088882.3755,0.0536,-0.6389,-0.7539
1772931088882.3755,0.0495,-0.6385,-0.7539
1772931088897.9158,0.0486,-0.6426,-0.7531
1772931088897.9158,0.0478,-0.6414,-0.7521
1772931088897.9158,0.0471,-0.6419,-0.7551
1772931088897.9158,0.0479,-0.6419,-0.7523
1772931088897.9158,0.0445,-0.6426,-0.7527
1772931088897.9158,0.0468,-0.6417,-0.7509
1772931088897.9158,0.041,-0.6403,-0.7491
1772931088897.9158,0.0409,-0.6416,-0.7485
1772931088913.5115,0.0413,-0.6408,-0.7505
1772931088913.5115,0.0417,-0.6407,-0.7471
1772931088913.5115,0.0401,-0.64,-0.7476
1772931088913.5115,0.0389,-0.6382,-0.7446
1772931088913.5115,0.0396,-0.6371,-0.7432
1772931088928.6912,0.0403,-0.6354,-0.7407
1772931088928.6912,0.0412,-0.634,-0.7388
1772931088928.6912,0.041,-0.635,-0.7377
1772931088928.6912,0.0439,-0.6346,-0.739
1772931088928.6912,0.0448,-0.6317,-0.7376
1772931088928.6912,0.0444,-0.6316,-0.7361
1772931088928.6912,0.0461,-0.6312,-0.7368
1772931088928.6912,0.0442,-0.6277,-0.7365
1772931088944.3213,0.0456,-0.6271,-0.7404
1772931088944.3213,0.044,-0.6276,-0.7418
1772931088944.3213,0.0441,-0.6261,-0.7396
1772931088944.3213,0.0446,-0.6265,-0.7409
1772931088944.3213,0.0428,-0.6268,-0.7428
1772931088944.3213,0.0443,-0.6267,-0.7439
1772931088944.3213,0.0443,-0.6295,-0.7435
1772931088944.3213,0.0462,-0.6273,-0.7465
1772931088959.9219,0.0448,-0.6262,-0.7459
1772931088959.9219,0.0447,-0.6234,-0.743
1772931088959.9219,0.0473,-0.6266,-0.7476
1772931088959.9219,0.0487,-0.6228,-0.7443
1772931088959.9219,0.0492,-0.6217,-0.746
1772931088959.9219,0.0491,-0.6231,-0.7449
1772931088959.9219,0.0489,-0.6183,-0.7471
1772931088959.9219,0.0494,-0.6212,-0.7476
1772931088975.5303,0.0499,-0.6228,-0.748
1772931088975.5303,0.0486,-0.6231,-0.7501
1772931088975.5303,0.0486,-0.625,-0.7482
1772931088975.5303,0.0489,-0.6244,-0.7623
1772931088975.5303,0.0472,-0.6263,-0.7483
1772931088975.5303,0.0453,-0.6262,-0.7538
1772931088975.5303,0.0418,-0.6273,-0.7555
1772931088975.5303,0.0389,-0.6274,-0.7609
1772931088991.0947,0.0426,-0.6299,-0.7574
1772931088991.0947,0.0472,-0.634,-0.7557
1772931088991.0947,0.0475,-0.635,-0.752
1772931088991.0947,0.0518,-0.6339,-0.7486
1772931088991.0947,0.0544,-0.6325,-0.7502
1772931088991.0947,0.0533,-0.6298,-0.7482
1772931089007.184,0.0518,-0.631,-0.7445
1772931089007.184,0.0512,-0.6303,-0.7435
1772931089007.184,0.0489,-0.6299,-0.7437
1772931089007.184,0.0429,-0.6311,-0.7433
1772931089007.184,0.0404,-0.634,-0.743
1772931089007.184,0.0393,-0.6349,-0.7421
1772931089007.184,0.0384,-0.6363,-0.7435
1772931089007.184,0.0371,-0.6403,-0.7436
1772931089023.2773,0.0372,-0.6411,-0.7454
1772931089023.2773,0.0345,-0.6425,-0.7448
1772931089023.2773,0.0341,-0.6425,-0.7451
1772931089023.2773,0.0349,-0.6431,-0.7475
1772931089023.2773,0.0334,-0.6408,-0.7453
1772931089023.2773,0.0357,-0.641,-0.7463
1772931089023.2773,0.0386,-0.6391,-0.7446
1772931089023.2773,0.0414,-0.6381,-0.7482
1772931089039.2588,0.0414,-0.6324,-0.747
1772931089039.2588,0.0417,-0.6359,-0.7482
1772931089039.2588,0.0414,-0.6345,-0.7471
1772931089039.2588,0.0425,-0.6348,-0.7487
1772931089039.2588,0.0425,-0.6334,-0.7504
1772931089039.2588,0.0425,-0.6339,-0.7502
1772931089039.2588,0.0417,-0.6353,-0.7496
1772931089039.2588,0.0428,-0.6339,-0.749
1772931089054.7983,0.0427,-0.6354,-0.751
1772931089054.7983,0.0466,-0.6356,-0.7502
1772931089054.7983,0.0417,-0.6354,-0.752
1772931089054.7983,0.0464,-0.6336,-0.7484
1772931089054.7983,0.0428,-0.6338,-0.7465
1772931089054.7983,0.0462,-0.6356,-0.7455
1772931089054.7983,0.0489,-0.6343,-0.7477
1772931089054.7983,0.0509,-0.6343,-0.7462
1772931089071.3455,0.0498,-0.6323,-0.7469
1772931089071.3455,0.0515,-0.6281,-0.7431
1772931089071.3455,0.053,-0.6296,-0.7485
1772931089071.3455,0.0486,-0.629,-0.7479
1772931089071.3455,0.048,-0.6302,-0.7471
1772931089071.3455,0.0494,-0.6296,-0.7471
1772931089071.3455,0.0495,-0.6309,-0.7479
1772931089071.3455,0.0497,-0.6309,-0.7485
1772931089086.905,0.0469,-0.6345,-0.7478
1772931089086.905,0.0482,-0.6334,-0.7456
1772931089086.905,0.0462,-0.6355,-0.7457
1772931089086.905,0.0493,-0.6377,-0.751
1772931089086.905,0.0471,-0.6354,-0.7471
1772931089086.905,0.0485,-0.6383,-0.7443
1772931089086.905,0.0485,-0.6373,-0.7474
1772931089086.905,0.0474,-0.6362,-0.7446
1772931089102.4604,0.0473,-0.6371,-0.7472
1772931089102.4604,0.0463,-0.634,-0.7461
1772931089102.4604,0.0453,-0.6346,-0.7464
1772931089102.4604,0.0502,-0.634,-0.7446
1772931089102.4604,0.0489,-0.6339,-0.7463
1772931089117.6091,0.0481,-0.6313,-0.7474
1772931089117.6091,0.0482,-0.6279,-0.7447
1772931089117.6091,0.0487,-0.6298,-0.7475
1772931089117.6091,0.0493,-0.6318,-0.7432
1772931089117.6091,0.051,-0.6329,-0.7432
1772931089117.6091,0.0522,-0.6332,-0.7439
1772931089117.6091,0.0494,-0.6348,-0.7472
1772931089117.6091,0.0498,-0.6353,-0.7483
1772931089133.6528,0.0484,-0.6371,-0.7451
1772931089133.6528,0.0451,-0.6359,-0.7465
1772931089133.6528,0.0461,-0.636,-0.7463
1772931089133.6528,0.0481,-0.6331,-0.744
1772931089133.6528,0.0457,-0.6326,-0.7457
1772931089133.6528,0.0452,-0.6329,-0.7471
1772931089133.6528,0.0404,-0.6321,-0.7465
1772931089133.6528,0.043,-0.6294,-0.7458
1772931089148.8542,0.0437,-0.629,-0.7454
1772931089148.8542,0.0454,-0.6288,-0.7448
1772931089148.8542,0.0467,-0.6283,-0.7464
1772931089148.8542,0.0468,-0.6298,-0.7437
1772931089148.8542,0.0477,-0.6296,-0.7426
1772931089148.8542,0.0471,-0.6306,-0.7429
1772931089148.8542,0.0456,-0.6316,-0.7447
1772931089148.8542,0.0468,-0.6339,-0.7454
1772931089164.779,0.0454,-0.6321,-0.7445
1772931089164.779,0.0431,-0.6335,-0.7455
1772931089164.779,0.0451,-0.6334,-0.7465
1772931089164.779,0.0454,-0.6308,-0.7448
1772931089164.779,0.0437,-0.6312,-0.7472
1772931089164.779,0.0431,-0.6324,-0.7451
1772931089164.779,0.0454,-0.6339,-0.746
1772931089164.779,0.0435,-0.6314,-0.7446
1772931089180.4177,0.0442,-0.6318,-0.7443
1772931089180.4177,0.0434,-0.6312,-0.7429
1772931089180.4177,0.042,-0.6305,-0.7443
1772931089180.4177,0.0422,-0.6296,-0.7428
1772931089180.4177,0.0411,-0.6281,-0.7456
1772931089180.4177,0.0394,-0.6288,-0.7455
1772931089180.4177,0.0392,-0.63,-0.7454
1772931089180.4177,0.04,-0.6293,-0.7462
1772931089196.5107,0.0384,-0.6304,-0.7462
1772931089196.5107,0.0391,-0.6302,-0.7449
1772931089196.5107,0.0371,-0.6343,-0.7431
1772931089196.5107,0.0364,-0.6311,-0.7465
1772931089196.5107,0.0358,-0.6324,-0.7448
1772931089213.0803,0.0365,-0.633,-0.7473
1772931089213.0803,0.0335,-0.6335,-0.7448
1772931089213.0803,0.0376,-0.6349,-0.7429
1772931089213.0803,0.0358,-0.6345,-0.7467
1772931089213.0803,0.0364,-0.6319,-0.7446
1772931089213.0803,0.037,-0.632,-0.7462
1772931089213.0803,0.0376,-0.6312,-0.7452
1772931089213.0803,0.0364,-0.6304,-0.7462
1772931089229.3142,0.0373,-0.6329,-0.7435
1772931089229.3142,0.0397,-0.6316,-0.7444
1772931089229.3142,0.0392,-0.6325,-0.7436
1772931089229.3142,0.0394,-0.6324,-0.7438
1772931089229.3142,0.0429,-0.6328,-0.7443
1772931089229.3142,0.0413,-0.6301,-0.7439
1772931089229.3142,0.0441,-0.6321,-0.7433
1772931089229.3142,0.0468,-0.6311,-0.7442
1772931089244.6992,0.0459,-0.6317,-0.7427
1772931089244.6992,0.0486,-0.6324,-0.7429
1772931089244.6992,0.0482,-0.6318,-0.7468
1772931089244.6992,0.0496,-0.6332,-0.7462
1772931089244.6992,0.0492,-0.6345,-0.7452
1772931089244.6992,0.0483,-0.6341,-0.745
1772931089244.6992,0.0469,-0.6335,-0.7462
1772931089244.6992,0.047,-0.6329,-0.7438
1772931089260.5068,0.0459,-0.6322,-0.7479
1772931089260.5068,0.0439,-0.6351,-0.7472
1772931089260.5068,0.0474,-0.6334,-0.7435
1772931089260.5068,0.0453,-0.6342,-0.7485
1772931089260.5068,0.042,-0.6342,-0.7493
1772931089260.5068,0.0397,-0.6349,-0.7343
1772931089260.5068,0.0432,-0.6357,-0.7483
1772931089260.5068,0.0426,-0.6373,-0.7471
1772931089275.7754,0.0435,-0.6359,-0.7443
1772931089275.7754,0.045,-0.6363,-0.7454
1772931089275.7754,0.046,-0.6348,-0.7425
1772931089275.7754,0.0477,-0.6365,-0.7401
1772931089275.7754,0.0472,-0.6367,-0.741
1772931089275.7754,0.0473,-0.6387,-0.7418
1772931089275.7754,0.0468,-0.6371,-0.7387
1772931089275.7754,0.0453,-0.6365,-0.7401
1772931089291.3467,0.0451,-0.6356,-0.7395
1772931089291.3467,0.0472,-0.6367,-0.7371
1772931089291.3467,0.0446,-0.6372,-0.7402
1772931089291.3467,0.0464,-0.6367,-0.7382
1772931089291.3467,0.0437,-0.6379,-0.7391
1772931089291.3467,0.0436,-0.6373,-0.7411
1772931089306.5457,0.0423,-0.6354,-0.7396
1772931089306.5457,0.0442,-0.6367,-0.7416
1772931089306.5457,0.0444,-0.6361,-0.7382
1772931089306.5457,0.0436,-0.6333,-0.7427
1772931089306.5457,0.0464,-0.6324,-0.7414
1772931089306.5457,0.0462,-0.6329,-0.7447
1772931089306.5457,0.0494,-0.632,-0.7444
1772931089306.5457,0.0512,-0.6318,-0.7437
1772931089321.7542,0.0506,-0.6295,-0.7465
1772931089321.7542,0.0506,-0.629,-0.7462
1772931089321.7542,0.0517,-0.6288,-0.7472
1772931089321.7542,0.0493,-0.6295,-0.7491
1772931089321.7542,0.048,-0.6301,-0.7501
1772931089321.7542,0.0508,-0.6265,-0.7525
1772931089321.7542,0.0488,-0.6262,-0.7549
1772931089321.7542,0.0502,-0.6266,-0.7556
1772931089337.3008,0.0475,-0.6262,-0.756
1772931089337.3008,0.0506,-0.6269,-0.7556
1772931089337.3008,0.0481,-0.627,-0.7591
1772931089337.3008,0.0471,-0.6303,-0.7598
1772931089337.3008,0.0464,-0.6299,-0.7604
1772931089337.3008,0.0476,-0.6314,-0.7613
1772931089337.3008,0.0464,-0.6296,-0.7599
1772931089337.3008,0.0456,-0.6337,-0.7582
1772931089353.349,0.0498,-0.6357,-0.7588
1772931089353.349,0.049,-0.6349,-0.7571
1772931089353.349,0.0493,-0.637,-0.7587
1772931089353.349,0.0487,-0.6385,-0.7565
1772931089353.349,0.0492,-0.6371,-0.7543
1772931089353.349,0.0491,-0.6412,-0.7571
1772931089353.349,0.0475,-0.6387,-0.7562
1772931089353.349,0.0472,-0.6417,-0.7556
1772931089368.957,0.047,-0.64,-0.7547
1772931089368.957,0.0478,-0.6407,-0.7524
1772931089368.957,0.0514,-0.641,-0.7478
1772931089368.957,0.0511,-0.6406,-0.7488
1772931089368.957,0.0504,-0.6404,-0.7474
1772931089384.7297,0.0524,-0.6399,-0.7464
1772931089384.7297,0.0508,-0.6382,-0.7446
1772931089384.7297,0.0531,-0.6354,-0.747
1772931089384.7297,0.0543,-0.6371,-0.7455
1772931089384.7297,0.0537,-0.6362,-0.7429
1772931089384.7297,0.0533,-0.6335,-0.7435
1772931089384.7297,0.0544,-0.6327,-0.7431
1772931089384.7297,0.0548,-0.634,-0.7441
1772931089399.7942,0.0545,-0.6321,-0.7468
1772931089399.7942,0.0541,-0.6317,-0.7466
1772931089399.7942,0.0524,-0.629,-0.7476
1772931089399.7942,0.0545,-0.6281,-0.7486
1772931089399.7942,0.0544,-0.6276,-0.7499
1772931089399.7942,0.0525,-0.6274,-0.7506
1772931089399.7942,0.0553,-0.6273,-0.7471
1772931089399.7942,0.0554,-0.6259,-0.751
1772931089415.8865,0.0557,-0.6264,-0.7486
1772931089415.8865,0.0556,-0.6249,-0.7494
1772931089415.8865,0.0554,-0.6255,-0.7501
1772931089415.8865,0.0558,-0.6259,-0.7483
1772931089415.8865,0.0555,-0.6265,-0.746
1772931089415.8865,0.0541,-0.6293,-0.7485
1772931089415.8865,0.0498,-0.6262,-0.749
1772931089415.8865,0.0511,-0.6271,-0.7457
1772931089431.6504,0.0501,-0.6271,-0.7488
1772931089431.6504,0.0499,-0.6261,-0.7481
1772931089431.6504,0.0513,-0.6266,-0.7502
1772931089431.6504,0.0479,-0.6259,-0.7491
1772931089431.6504,0.0495,-0.6263,-0.7478
1772931089431.6504,0.0476,-0.6285,-0.7443
1772931089431.6504,0.0475,-0.6299,-0.7474
1772931089431.6504,0.05,-0.6279,-0.7464
1772931089447.5813,0.0489,-0.6289,-0.7453
1772931089447.5813,0.0504,-0.6314,-0.7432
1772931089447.5813,0.0481,-0.6334,-0.7442
1772931089447.5813,0.0487,-0.6335,-0.7414
1772931089447.5813,0.0466,-0.6315,-0.7394
1772931089447.5813,0.0394,-0.634,-0.7366
1772931089447.5813,0.0672,-0.6305,-0.7533
1772931089447.5813,0.0601,-0.6353,-0.741
1772931089463.1274,0.0526,-0.6328,-0.7427
1772931089463.1274,0.0113,-0.5994,-0.6951
1772931089463.1274,0.0742,-0.6452,-0.7728
1772931089463.1274,0.0777,-0.6432,-0.7662
1772931089463.1274,0.0553,-0.6323,-0.7486
1772931089478.672,0.0535,-0.6298,-0.7483
1772931089478.672,0.053,-0.6318,-0.749
1772931089478.672,0.055,-0.629,-0.7501
1772931089478.672,0.0512,-0.6301,-0.7512
1772931089478.672,0.055,-0.6331,-0.7491
1772931089478.672,0.0502,-0.6335,-0.7468
1772931089478.672,0.0529,-0.6359,-0.7468
1772931089478.672,0.0549,-0.6328,-0.7459
1772931089494.2651,0.0546,-0.6299,-0.7461
1772931089494.2651,0.0524,-0.6329,-0.7479
1772931089494.2651,0.0498,-0.6331,-0.7488
1772931089494.2651,0.051,-0.6326,-0.7508
1772931089494.2651,0.0501,-0.6316,-0.749
1772931089494.2651,0.049,-0.6306,-0.7504
1772931089494.2651,0.0493,-0.6324,-0.748
1772931089494.2651,0.0476,-0.6338,-0.7452
1772931089509.8467,0.05,-0.6335,-0.7436
1772931089509.8467,0.0514,-0.631,-0.743
1772931089509.8467,0.0488,-0.6321,-0.7419
1772931089509.8467,0.0503,-0.6321,-0.7402
1772931089509.8467,0.0497,-0.6326,-0.7409
1772931089509.8467,0.0487,-0.6321,-0.7368
1772931089509.8467,0.0476,-0.6354,-0.7346
1772931089509.8467,0.0493,-0.6349,-0.7383
1772931089525.4514,0.0512,-0.6359,-0.736
1772931089525.4514,0.0459,-0.637,-0.7359
1772931089525.4514,0.0459,-0.6349,-0.7359
1772931089525.4514,0.0472,-0.6386,-0.7357
1772931089525.4514,0.0481,-0.6359,-0.7364
1772931089525.4514,0.0454,-0.6309,-0.7419
1772931089525.4514,0.0426,-0.6274,-0.7468
1772931089525.4514,0.0412,-0.624,-0.7524
1772931089540.5432,0.0377,-0.6259,-0.7552
1772931089540.5432,0.0374,-0.6268,-0.7581
1772931089540.5432,0.0413,-0.6282,-0.7586
1772931089540.5432,0.0434,-0.6337,-0.7602
1772931089540.5432,0.0445,-0.6324,-0.761
1772931089540.5432,0.0434,-0.6299,-0.7636
1772931089555.6482,0.0461,-0.6235,-0.7636
1772931089555.6482,0.0415,-0.6201,-0.7673
1772931089555.6482,0.0435,-0.6195,-0.7698
1772931089555.6482,0.0454,-0.6184,-0.7721
1772931089555.6482,0.0492,-0.6257,-0.7751
1772931089555.6482,0.0484,-0.6292,-0.7697
1772931089555.6482,0.0555,-0.6324,-0.768
1772931089555.6482,0.0559,-0.637,-0.7631
1772931089571.696,0.0658,-0.6393,-0.7618
1772931089571.696,0.0651,-0.6352,-0.7571
1772931089571.696,0.0651,-0.6335,-0.7524
1772931089571.696,0.0655,-0.6298,-0.7521
1772931089571.696,0.0627,-0.6287,-0.7476
1772931089571.696,0.06,-0.6254,-0.7457
1772931089571.696,0.059,-0.6246,-0.7428
1772931089571.696,0.0572,-0.6273,-0.7393
1772931089587.3274,0.0567,-0.6296,-0.7321
1772931089587.3274,0.0576,-0.6345,-0.7275
1772931089587.3274,0.059,-0.6376,-0.7246
1772931089587.3274,0.06,-0.6377,-0.7216
1772931089587.3274,0.0581,-0.6389,-0.7157
1772931089587.3274,0.0529,-0.6395,-0.7178
1772931089587.3274,0.05,-0.6394,-0.7144
1772931089587.3274,0.0445,-0.6395,-0.7141
1772931089603.3845,0.041,-0.64,-0.717
1772931089603.3845,0.0369,-0.6406,-0.7166
1772931089603.3845,0.0323,-0.6415,-0.7172
1772931089603.3845,0.0288,-0.6421,-0.7169
1772931089603.3845,0.0257,-0.6399,-0.7233
1772931089603.3845,0.0326,-0.64,-0.7286
1772931089603.3845,0.0277,-0.6411,-0.7297
1772931089603.3845,0.024,-0.6415,-0.7344
1772931089618.508,0.0248,-0.6374,-0.7355
1772931089618.508,0.0234,-0.6354,-0.7407
1772931089618.508,0.0253,-0.6333,-0.7444
1772931089618.508,0.0251,-0.6323,-0.744
1772931089618.508,0.0292,-0.6308,-0.7487
1772931089634.054,0.0327,-0.6294,-0.7467
1772931089634.054,0.0353,-0.6278,-0.7498
1772931089634.054,0.0364,-0.6249,-0.7518
1772931089634.054,0.0396,-0.6236,-0.7532
1772931089634.054,0.0413,-0.6221,-0.7592
1772931089634.054,0.0509,-0.6223,-0.7602
1772931089634.054,0.0542,-0.6202,-0.7587
1772931089634.054,0.0484,-0.62,-0.7627
1772931089649.5996,0.0404,-0.6238,-0.7498
1772931089649.5996,0.0741,-0.6301,-0.7841
1772931089649.5996,0.076,-0.6202,-0.7696
1772931089649.5996,0.0727,-0.616,-0.7652
1772931089649.5996,0.0684,-0.6206,-0.7651
1772931089649.5996,0.0692,-0.6212,-0.7653
1772931089649.5996,0.0725,-0.6143,-0.7665
1772931089649.5996,0.0744,-0.611,-0.7682
1772931089664.8425,0.0802,-0.611,-0.7722
1772931089664.8425,0.0764,-0.618,-0.7749
1772931089664.8425,0.0726,-0.6226,-0.7751
1772931089664.8425,0.0692,-0.6239,-0.777
1772931089664.8425,0.0658,-0.6245,-0.7756
1772931089664.8425,0.0656,-0.6242,-0.7721
1772931089664.8425,0.0659,-0.6242,-0.7718
1772931089664.8425,0.063,-0.6233,-0.7741
1772931089680.7385,0.0619,-0.6243,-0.7764
1772931089680.7385,0.0623,-0.624,-0.7742
1772931089680.7385,0.0591,-0.6246,-0.7733
1772931089680.7385,0.0587,-0.6287,-0.7722
1772931089680.7385,0.0558,-0.6282,-0.7676
1772931089680.7385,0.0576,-0.6272,-0.7723
1772931089680.7385,0.0554,-0.6298,-0.7663
1772931089680.7385,0.0568,-0.627,-0.7638
1772931089696.6733,0.0586,-0.6268,-0.7645
1772931089696.6733,0.0588,-0.6281,-0.7584
1772931089696.6733,0.0583,-0.6307,-0.7533
1772931089696.6733,0.0468,-0.6259,-0.7438
1772931089696.6733,0.0604,-0.6364,-0.7632
1772931089713.237,0.062,-0.6362,-0.7569
