Time_ms,ax,ay,az
1772930846052.154,0.0418,-0.5968,-0.7729
1772930846052.154,0.0392,-0.5949,-0.7715
1772930846067.2363,0.0403,-0.5982,-0.7745
1772930846067.2363,0.0401,-0.5968,-0.7773
1772930846067.2363,0.0354,-0.5955,-0.7814
1772930846067.2363,0.037,-0.5948,-0.7803
1772930846067.2363,0.0331,-0.5957,-0.782
1772930846083.3044,0.0312,-0.5951,-0.7909
1772930846083.3044,0.032,-0.5959,-0.7939
1772930846083.3044,0.0317,-0.5948,-0.8006
1772930846083.3044,0.0313,-0.5927,-0.8105
1772930846083.3044,0.0275,-0.5868,-0.8168
1772930846083.3044,0.0288,-0.5856,-0.8258
1772930846083.3044,0.026,-0.5851,-0.8363
1772930846083.3044,0.0279,-0.5845,-0.8452
1772930846098.8848,0.026,-0.5853,-0.8477
1772930846098.8848,0.0279,-0.5882,-0.8448
1772930846098.8848,0.0362,-0.5909,-0.8402
1772930846098.8848,0.0374,-0.593,-0.8395
1772930846098.8848,0.0414,-0.5944,-0.8276
1772930846098.8848,0.0484,-0.5961,-0.8161
1772930846098.8848,0.0523,-0.5973,-0.8066
1772930846098.8848,0.0551,-0.5965,-0.7907
1772930846113.926,0.0582,-0.5944,-0.7862
1772930846113.926,0.062,-0.5916,-0.7802
1772930846113.926,0.062,-0.586,-0.7785
1772930846113.926,0.0623,-0.5852,-0.7788
1772930846113.926,0.0622,-0.5863,-0.7817
1772930846113.926,0.0565,-0.5844,-0.7793
1772930846113.926,0.0536,-0.5878,-0.7806
1772930846113.926,0.0477,-0.5891,-0.7831
1772930846129.0864,0.0481,-0.5902,-0.7879
1772930846129.0864,0.039,-0.595,-0.7876
1772930846129.0864,0.0358,-0.5958,-0.7868
1772930846129.0864,0.0323,-0.5991,-0.787
1772930846129.0864,0.0321,-0.6024,-0.7775
1772930846129.0864,0.0301,-0.6021,-0.764
1772930846129.0864,0.0291,-0.603,-0.7566
1772930846129.0864,0.0317,-0.6048,-0.7497
1772930846145.2,0.0353,-0.6041,-0.7477
1772930846145.2,0.0359,-0.6017,-0.7454
1772930846145.2,0.0379,-0.6012,-0.747
1772930846145.2,0.0368,-0.5959,-0.7485
1772930846145.2,0.0367,-0.5946,-0.7504
1772930846145.2,0.0353,-0.5937,-0.7497
1772930846145.2,0.0326,-0.5885,-0.7526
1772930846145.2,0.032,-0.5857,-0.7543
1772930846160.745,0.0295,-0.586,-0.7576
1772930846160.745,0.0282,-0.5844,-0.7608
1772930846160.745,0.0199,-0.5829,-0.7651
1772930846160.745,0.0245,-0.584,-0.7681
1772930846160.745,0.0223,-0.5843,-0.7704
1772930846176.3235,0.0238,-0.5838,-0.7746
1772930846176.3235,0.0247,-0.5832,-0.7735
1772930846176.3235,0.0243,-0.5831,-0.7752
1772930846176.3235,0.027,-0.5799,-0.7803
1772930846176.3235,0.03,-0.5799,-0.7839
1772930846176.3235,0.0325,-0.5805,-0.7808
1772930846176.3235,0.0333,-0.5794,-0.7812
1772930846176.3235,0.0347,-0.5782,-0.7848
1772930846192.378,0.0392,-0.5793,-0.7861
1772930846192.378,0.042,-0.5779,-0.7861
1772930846192.378,0.0422,-0.5764,-0.7874
1772930846192.378,0.0431,-0.576,-0.7882
1772930846192.378,0.0439,-0.575,-0.7823
1772930846192.378,0.0436,-0.5739,-0.7852
1772930846192.378,0.0453,-0.5729,-0.7859
1772930846192.378,0.0456,-0.5714,-0.7862
1772930846207.907,0.0446,-0.5716,-0.7828
1772930846207.907,0.0468,-0.571,-0.7834
1772930846207.907,0.0453,-0.5718,-0.7848
1772930846207.907,0.0472,-0.5746,-0.782
1772930846207.907,0.0462,-0.5745,-0.7801
1772930846207.907,0.0454,-0.5744,-0.7807
1772930846207.907,0.0462,-0.575,-0.7799
1772930846207.907,0.0489,-0.5802,-0.7865
1772930846223.9612,0.047,-0.5783,-0.779
1772930846223.9612,0.0417,-0.578,-0.7702
1772930846223.9612,0.0447,-0.5786,-0.7788
1772930846223.9612,0.0451,-0.581,-0.7757
1772930846223.9612,0.0432,-0.5794,-0.7766
1772930846223.9612,0.042,-0.5804,-0.7762
1772930846223.9612,0.0437,-0.5824,-0.7775
1772930846223.9612,0.0423,-0.5804,-0.7782
1772930846239.9988,0.0407,-0.5831,-0.7772
1772930846239.9988,0.0368,-0.5865,-0.7769
1772930846239.9988,0.0364,-0.5855,-0.7788
1772930846239.9988,0.0357,-0.5864,-0.7811
1772930846239.9988,0.0343,-0.5874,-0.7841
1772930846239.9988,0.0348,-0.5863,-0.7826
1772930846239.9988,0.034,-0.5883,-0.7856
1772930846239.9988,0.03,-0.5881,-0.7885
1772930846255.684,0.0323,-0.588,-0.7871
1772930846255.684,0.0298,-0.5909,-0.7854
1772930846255.684,0.0315,-0.5895,-0.786
1772930846255.684,0.0285,-0.5922,-0.787
1772930846255.684,0.0314,-0.5928,-0.7898
1772930846255.684,0.0285,-0.5895,-0.7909
1772930846271.2651,0.0285,-0.5896,-0.7918
1772930846271.2651,0.0337,-0.5901,-0.7868
1772930846271.2651,0.0316,-0.5887,-0.7891
1772930846271.2651,0.035,-0.5877,-0.7902
1772930846271.2651,0.0335,-0.5883,-0.7906
1772930846271.2651,0.0347,-0.5863,-0.7881
1772930846271.2651,0.0362,-0.5849,-0.7864
1772930846271.2651,0.0384,-0.586,-0.7883
1772930846286.9993,0.0408,-0.5874,-0.7887
1772930846286.9993,0.039,-0.5873,-0.7864
1772930846286.9993,0.0398,-0.5882,-0.7873
1772930846286.9993,0.0396,-0.5884,-0.7854
1772930846286.9993,0.0393,-0.5882,-0.784
1772930846286.9993,0.0457,-0.5899,-0.7857
1772930846286.9993,0.0458,-0.5898,-0.7818
1772930846286.9993,0.0454,-0.5932,-0.7778
1772930846302.8213,0.0486,-0.5933,-0.7788
1772930846302.8213,0.0474,-0.594,-0.7763
1772930846302.8213,0.0488,-0.593,-0.7759
1772930846302.8213,0.049,-0.5939,-0.7748
1772930846302.8213,0.0493,-0.5915,-0.7734
1772930846302.8213,0.0472,-0.5918,-0.7726
1772930846302.8213,0.047,-0.5937,-0.771
1772930846302.8213,0.0483,-0.5935,-0.7743
1772930846317.919,0.0471,-0.5917,-0.7742
1772930846317.919,0.0443,-0.5904,-0.7787
1772930846317.919,0.0465,-0.5915,-0.7788
1772930846317.919,0.0416,-0.5893,-0.7796
1772930846317.919,0.0394,-0.588,-0.7859
1772930846317.919,0.0365,-0.5843,-0.7848
1772930846317.919,0.0363,-0.5843,-0.7877
1772930846317.919,0.0308,-0.5832,-0.7924
1772930846332.95,0.0333,-0.5829,-0.7965
1772930846332.95,0.0319,-0.5833,-0.8
1772930846332.95,0.0301,-0.5836,-0.8029
1772930846332.95,0.0273,-0.5841,-0.8013
1772930846332.95,0.0273,-0.583,-0.8011
1772930846348.0073,0.029,-0.5822,-0.8008
1772930846348.0073,0.0285,-0.5819,-0.7982
1772930846348.0073,0.0286,-0.582,-0.7987
1772930846348.0073,0.0305,-0.5811,-0.7977
1772930846348.0073,0.0321,-0.5816,-0.7954
1772930846348.0073,0.0349,-0.5801,-0.7946
1772930846348.0073,0.0359,-0.58,-0.7899
1772930846348.0073,0.0369,-0.5801,-0.7914
1772930846364.0227,0.0389,-0.578,-0.7901
1772930846364.0227,0.0404,-0.5778,-0.7858
1772930846364.0227,0.042,-0.5782,-0.7833
1772930846364.0227,0.0425,-0.5781,-0.7863
1772930846364.0227,0.0432,-0.5783,-0.7851
1772930846364.0227,0.0448,-0.581,-0.7835
1772930846364.0227,0.0468,-0.583,-0.7814
1772930846364.0227,0.0464,-0.5851,-0.7775
1772930846379.1602,0.0488,-0.5866,-0.7759
1772930846379.1602,0.0478,-0.5887,-0.7773
1772930846379.1602,0.0484,-0.5891,-0.7791
1772930846379.1602,0.0484,-0.5895,-0.7765
1772930846379.1602,0.0479,-0.5914,-0.776
1772930846379.1602,0.0483,-0.5919,-0.7765
1772930846379.1602,0.0473,-0.5943,-0.7756
1772930846379.1602,0.0473,-0.5923,-0.7792
1772930846394.363,0.048,-0.593,-0.777
1772930846394.363,0.0466,-0.5916,-0.7773
1772930846394.363,0.047,-0.5934,-0.7788
1772930846394.363,0.0442,-0.5904,-0.7783
1772930846394.363,0.0468,-0.592,-0.7792
1772930846410.1536,0.0456,-0.5894,-0.7807
1772930846410.1536,0.047,-0.5876,-0.7807
1772930846410.1536,0.0426,-0.5906,-0.7809
1772930846410.1536,0.0438,-0.5861,-0.7837
1772930846410.1536,0.0451,-0.5872,-0.7843
1772930846410.1536,0.0444,-0.5877,-0.7852
1772930846410.1536,0.045,-0.5863,-0.7839
1772930846410.1536,0.0452,-0.59,-0.7864
1772930846425.2236,0.0421,-0.5873,-0.7859
1772930846425.2236,0.0437,-0.5868,-0.786
1772930846425.2236,0.0484,-0.5825,-0.7865
1772930846425.2236,0.047,-0.5855,-0.7868
1772930846425.2236,0.0473,-0.5834,-0.7897
1772930846425.2236,0.0484,-0.5825,-0.7899
1772930846425.2236,0.0473,-0.5834,-0.7864
1772930846425.2236,0.0453,-0.5805,-0.7874
1772930846441.271,0.0475,-0.5811,-0.7878
1772930846441.271,0.0489,-0.5836,-0.7871
1772930846441.271,0.0473,-0.5819,-0.786
1772930846441.271,0.0486,-0.5807,-0.7865
1772930846441.271,0.0487,-0.5818,-0.7865
1772930846441.271,0.0465,-0.5808,-0.7864
1772930846441.271,0.0462,-0.5821,-0.7861
1772930846441.271,0.0468,-0.5838,-0.7874
1772930846457.0078,0.0453,-0.5853,-0.7839
1772930846457.0078,0.0437,-0.588,-0.7843
1772930846457.0078,0.044,-0.5879,-0.7865
1772930846457.0078,0.0421,-0.5894,-0.7857
1772930846457.0078,0.0443,-0.5904,-0.7844
1772930846457.0078,0.043,-0.5902,-0.7862
1772930846457.0078,0.0428,-0.5907,-0.7856
1772930846457.0078,0.0431,-0.5912,-0.7824
1772930846473.0635,0.0417,-0.5915,-0.783
1772930846473.0635,0.0395,-0.5926,-0.782
1772930846473.0635,0.0403,-0.5908,-0.7835
1772930846473.0635,0.0398,-0.5922,-0.7833
1772930846473.0635,0.0352,-0.5913,-0.7803
1772930846473.0635,0.0339,-0.5913,-0.781
1772930846473.0635,0.0335,-0.5937,-0.7837
1772930846473.0635,0.0334,-0.5899,-0.7799
1772930846488.9,0.0313,-0.5912,-0.7825
1772930846488.9,0.0329,-0.5908,-0.7823
1772930846488.9,0.0303,-0.5903,-0.7825
1772930846488.9,0.0333,-0.59,-0.783
1772930846488.9,0.0313,-0.5877,-0.7848
1772930846488.9,0.0326,-0.5862,-0.7824
1772930846504.0562,0.0315,-0.5861,-0.7832
1772930846504.0562,0.0309,-0.5893,-0.7835
1772930846504.0562,0.0321,-0.5869,-0.7813
1772930846504.0562,0.0346,-0.5897,-0.7823
1772930846504.0562,0.0325,-0.585,-0.7825
1772930846504.0562,0.0337,-0.5847,-0.7796
1772930846504.0562,0.0318,-0.5845,-0.7821
1772930846504.0562,0.0339,-0.5866,-0.7826
1772930846519.7766,0.0353,-0.5849,-0.782
1772930846519.7766,0.0337,-0.5865,-0.7798
1772930846519.7766,0.0342,-0.5846,-0.7829
1772930846519.7766,0.0351,-0.5844,-0.7819
1772930846519.7766,0.0377,-0.5836,-0.7815
1772930846519.7766,0.0372,-0.5849,-0.7803
1772930846519.7766,0.0364,-0.585,-0.7797
1772930846519.7766,0.037,-0.5831,-0.7828
1772930846534.8184,0.0379,-0.5828,-0.7829
1772930846534.8184,0.0366,-0.5827,-0.7816
1772930846534.8184,0.0356,-0.5805,-0.7854
1772930846534.8184,0.0393,-0.5807,-0.7848
1772930846534.8184,0.037,-0.5813,-0.7854
1772930846534.8184,0.0349,-0.5803,-0.7849
1772930846534.8184,0.035,-0.5802,-0.7856
1772930846534.8184,0.0364,-0.577,-0.7869
1772930846549.7966,0.0373,-0.5792,-0.7863
1772930846549.7966,0.0366,-0.58,-0.7856
1772930846549.7966,0.0342,-0.5779,-0.7873
1772930846549.7966,0.037,-0.5804,-0.7844
1772930846549.7966,0.0368,-0.581,-0.7843
1772930846565.367,0.0364,-0.5824,-0.7862
1772930846565.367,0.0363,-0.5839,-0.7832
1772930846565.367,0.0384,-0.5854,-0.7873
1772930846565.367,0.0375,-0.5863,-0.7842
1772930846565.367,0.0398,-0.5888,-0.7846
1772930846565.367,0.0386,-0.5896,-0.7849
1772930846565.367,0.0396,-0.5921,-0.7835
1772930846565.367,0.0379,-0.5906,-0.7841
1772930846580.9343,0.0387,-0.5935,-0.784
1772930846580.9343,0.0406,-0.5919,-0.7841
1772930846580.9343,0.0394,-0.5925,-0.7832
1772930846580.9343,0.0418,-0.5932,-0.7831
1772930846580.9343,0.0408,-0.5932,-0.7832
1772930846580.9343,0.0433,-0.5921,-0.7803
1772930846580.9343,0.0441,-0.5909,-0.7805
1772930846580.9343,0.0442,-0.5899,-0.7802
1772930846595.577,0.062,-0.5896,-0.7801
1772930846595.577,0.0472,-0.5902,-0.7814
1772930846595.577,0.0462,-0.5878,-0.7826
1772930846595.577,0.0489,-0.5874,-0.7803
1772930846595.577,0.0487,-0.5864,-0.781
1772930846595.577,0.0457,-0.5878,-0.782
1772930846595.577,0.0452,-0.5863,-0.7821
1772930846595.577,0.0458,-0.5857,-0.7823
1772930846610.6577,0.0431,-0.5851,-0.7854
1772930846610.6577,0.0418,-0.5812,-0.786
1772930846610.6577,0.041,-0.5833,-0.785
1772930846610.6577,0.0402,-0.5846,-0.7848
1772930846610.6577,0.0408,-0.5843,-0.7854
1772930846625.9858,0.04,-0.5861,-0.7848
1772930846625.9858,0.0409,-0.5808,-0.7867
1772930846625.9858,0.0407,-0.5808,-0.7876
1772930846625.9858,0.0395,-0.5828,-0.7846
1772930846625.9858,0.0389,-0.5805,-0.7876
1772930846625.9858,0.0373,-0.5827,-0.7867
1772930846625.9858,0.039,-0.5841,-0.7876
1772930846625.9858,0.0379,-0.5835,-0.7895
1772930846641.6157,0.0362,-0.5835,-0.7898
1772930846641.6157,0.0345,-0.5846,-0.7901
1772930846641.6157,0.0347,-0.586,-0.7889
1772930846641.6157,0.0374,-0.5833,-0.7901
1772930846641.6157,0.0362,-0.5841,-0.7901
1772930846641.6157,0.0375,-0.5849,-0.788
1772930846641.6157,0.0366,-0.5854,-0.79
1772930846641.6157,0.0356,-0.5861,-0.7892
1772930846657.2236,0.0371,-0.5849,-0.7879
1772930846657.2236,0.0373,-0.5854,-0.7887
1772930846657.2236,0.0364,-0.5891,-0.7894
1772930846657.2236,0.0383,-0.5861,-0.7861
1772930846657.2236,0.037,-0.5874,-0.7879
1772930846657.2236,0.0382,-0.588,-0.7881
1772930846657.2236,0.0398,-0.5882,-0.7846
1772930846657.2236,0.0397,-0.5886,-0.7854
1772930846673.2983,0.0383,-0.5874,-0.7869
1772930846673.2983,0.0427,-0.5843,-0.7822
1772930846673.2983,0.0401,-0.5868,-0.7826
1772930846673.2983,0.0413,-0.586,-0.7818
1772930846673.2983,0.0409,-0.5879,-0.7807
1772930846673.2983,0.0417,-0.5869,-0.7794
1772930846673.2983,0.0434,-0.588,-0.7814
1772930846673.2983,0.0427,-0.5844,-0.7796
1772930846689.8562,0.0392,-0.5864,-0.7801
1772930846689.8562,0.039,-0.586,-0.7817
1772930846689.8562,0.0398,-0.5852,-0.7803
1772930846689.8562,0.0408,-0.5844,-0.7798
1772930846689.8562,0.0387,-0.5847,-0.7809
1772930846689.8562,0.0381,-0.5824,-0.7809
1772930846689.8562,0.0376,-0.5839,-0.7811
1772930846689.8562,0.0386,-0.583,-0.7812
1772930846704.9578,0.0364,-0.5821,-0.7814
1772930846704.9578,0.0377,-0.5846,-0.7801
1772930846704.9578,0.0353,-0.5827,-0.7804
1772930846704.9578,0.0361,-0.586,-0.7817
1772930846704.9578,0.0348,-0.5835,-0.782
1772930846704.9578,0.0346,-0.5861,-0.7823
1772930846721.368,0.0347,-0.5841,-0.7785
1772930846721.368,0.0361,-0.5861,-0.782
1772930846721.368,0.0348,-0.5838,-0.7834
1772930846721.368,0.0353,-0.5845,-0.7824
1772930846721.368,0.0348,-0.583,-0.7852
1772930846721.368,0.0348,-0.5833,-0.7857
1772930846721.368,0.0344,-0.5819,-0.7835
1772930846721.368,0.0373,-0.5858,-0.7841
1772930846737.4485,0.0361,-0.5816,-0.7845
1772930846737.4485,0.0353,-0.5824,-0.7846
1772930846737.4485,0.0348,-0.5835,-0.7852
1772930846737.4485,0.0372,-0.5819,-0.784
1772930846737.4485,0.0393,-0.582,-0.7859
1772930846737.4485,0.0385,-0.5821,-0.7824
1772930846737.4485,0.0383,-0.5859,-0.782
1772930846737.4485,0.0394,-0.584,-0.784
1772930846753.7861,0.0409,-0.5861,-0.7843
1772930846753.7861,0.0418,-0.5849,-0.7845
1772930846753.7861,0.0422,-0.5865,-0.7828
1772930846753.7861,0.0439,-0.5854,-0.7837
1772930846753.7861,0.0462,-0.5854,-0.7835
1772930846753.7861,0.046,-0.5844,-0.7853
1772930846753.7861,0.0442,-0.5858,-0.7838
1772930846753.7861,0.0434,-0.5855,-0.7829
1772930846769.948,0.0454,-0.5837,-0.7821
1772930846769.948,0.0435,-0.5844,-0.7826
1772930846769.948,0.0445,-0.5855,-0.7828
1772930846769.948,0.0441,-0.585,-0.7832
1772930846769.948,0.0436,-0.5873,-0.7837
1772930846769.948,0.0425,-0.5882,-0.7827
1772930846769.948,0.0422,-0.5863,-0.7832
1772930846769.948,0.0401,-0.5867,-0.7843
1772930846785.5806,0.0415,-0.5863,-0.7857
1772930846785.5806,0.042,-0.5898,-0.7849
1772930846785.5806,0.0378,-0.5906,-0.7892
1772930846785.5806,0.04,-0.5871,-0.7876
1772930846785.5806,0.0379,-0.5904,-0.787
1772930846785.5806,0.0417,-0.5903,-0.7868
1772930846785.5806,0.0397,-0.588,-0.7874
1772930846785.5806,0.0384,-0.5907,-0.7855
1772930846801.1626,0.0408,-0.5911,-0.7877
1772930846801.1626,0.0376,-0.5901,-0.7864
1772930846801.1626,0.0382,-0.5887,-0.7873
1772930846801.1626,0.0425,-0.5924,-0.7842
1772930846801.1626,0.0405,-0.5921,-0.7885
1772930846801.1626,0.0397,-0.5929,-0.7876
1772930846801.1626,0.0418,-0.5916,-0.7858
1772930846801.1626,0.04,-0.5904,-0.7863
1772930846816.749,0.0425,-0.593,-0.7871
1772930846816.749,0.0444,-0.5915,-0.787
1772930846816.749,0.0457,-0.5915,-0.7863
1772930846816.749,0.045,-0.5883,-0.7862
1772930846816.749,0.046,-0.5927,-0.7858
1772930846833.2979,0.0481,-0.5923,-0.7856
1772930846833.2979,0.0464,-0.5894,-0.7858
1772930846833.2979,0.0499,-0.5897,-0.7843
1772930846833.2979,0.0473,-0.5901,-0.7828
1772930846833.2979,0.0487,-0.5874,-0.7852
1772930846833.2979,0.0481,-0.5862,-0.7858
1772930846833.2979,0.0464,-0.5867,-0.7865
1772930846833.2979,0.0501,-0.588,-0.7843
1772930846848.8713,0.047,-0.5883,-0.7836
1772930846848.8713,0.0474,-0.5865,-0.7834
1772930846848.8713,0.0483,-0.5886,-0.7837
1772930846848.8713,0.0458,-0.5859,-0.7876
1772930846848.8713,0.0451,-0.5866,-0.7861
1772930846848.8713,0.045,-0.5839,-0.7844
1772930846848.8713,0.0454,-0.5865,-0.7835
1772930846848.8713,0.0437,-0.583,-0.7877
1772930846863.911,0.043,-0.5819,-0.7847
1772930846863.911,0.0435,-0.5839,-0.786
1772930846863.911,0.0432,-0.583,-0.7855
1772930846863.911,0.0423,-0.586,-0.7862
1772930846863.911,0.0428,-0.5871,-0.7863
1772930846863.911,0.0423,-0.5853,-0.7838
1772930846863.911,0.0398,-0.5869,-0.7834
1772930846863.911,0.04,-0.5882,-0.7837
1772930846879.1514,0.0385,-0.5893,-0.7807
1772930846879.1514,0.0386,-0.5882,-0.7844
1772930846879.1514,0.0392,-0.5872,-0.7831
1772930846879.1514,0.0382,-0.589,-0.7813
1772930846879.1514,0.0367,-0.5895,-0.781
1772930846879.1514,0.0345,-0.5865,-0.7806
1772930846879.1514,0.0336,-0.5863,-0.7798
1772930846879.1514,0.0341,-0.5884,-0.7798
1772930846894.6912,0.0336,-0.5863,-0.7793
1772930846894.6912,0.035,-0.5865,-0.779
1772930846894.6912,0.0337,-0.586,-0.7804
1772930846894.6912,0.0349,-0.5836,-0.7845
1772930846894.6912,0.0349,-0.5852,-0.7806
1772930846909.7087,0.0353,-0.5863,-0.781
1772930846909.7087,0.035,-0.5856,-0.7831
1772930846909.7087,0.0342,-0.5838,-0.7863
1772930846909.7087,0.0371,-0.5852,-0.7845
1772930846909.7087,0.0376,-0.5845,-0.7893
1772930846909.7087,0.0396,-0.586,-0.7861
1772930846909.7087,0.0398,-0.5841,-0.7876
1772930846909.7087,0.04,-0.5835,-0.788
1772930846924.9243,0.0431,-0.5846,-0.7857
1772930846924.9243,0.0425,-0.5831,-0.7865
1772930846924.9243,0.0456,-0.5861,-0.7848
1772930846924.9243,0.0468,-0.5865,-0.7771
1772930846924.9243,0.0461,-0.5895,-0.7784
1772930846924.9243,0.0488,-0.5922,-0.7796
1772930846924.9243,0.0511,-0.5912,-0.7751
1772930846924.9243,0.0512,-0.5904,-0.7755
1772930846940.1406,0.0501,-0.589,-0.7776
1772930846940.1406,0.0478,-0.5868,-0.7756
1772930846940.1406,0.0456,-0.5894,-0.7759
1772930846940.1406,0.045,-0.5877,-0.7761
1772930846940.1406,0.0432,-0.5863,-0.7759
1772930846940.1406,0.0408,-0.5878,-0.7763
1772930846940.1406,0.0426,-0.5885,-0.7787
1772930846940.1406,0.04,-0.5873,-0.7803
1772930846956.1868,0.0362,-0.5877,-0.787
1772930846956.1868,0.0379,-0.5886,-0.787
1772930846956.1868,0.0381,-0.5858,-0.7919
1772930846956.1868,0.0382,-0.5895,-0.7936
1772930846956.1868,0.0396,-0.5893,-0.7941
1772930846956.1868,0.0411,-0.591,-0.7981
1772930846972.2993,0.0441,-0.5901,-0.7947
1772930846972.2993,0.0433,-0.588,-0.8021
1772930846972.2993,0.0448,-0.5876,-0.7982
1772930846972.2993,0.0467,-0.5863,-0.7951
1772930846972.2993,0.0481,-0.583,-0.795
1772930846972.2993,0.0513,-0.5794,-0.7948
1772930846972.2993,0.0519,-0.5769,-0.7927
1772930846972.2993,0.0496,-0.5741,-0.7957
1772930846987.6982,0.049,-0.573,-0.7954
1772930846987.6982,0.0497,-0.5724,-0.7937
1772930846987.6982,0.0479,-0.5733,-0.7913
1772930846987.6982,0.0505,-0.5747,-0.789
1772930846987.6982,0.0516,-0.5774,-0.7876
1772930846987.6982,0.0523,-0.5788,-0.7819
1772930846987.6982,0.054,-0.5804,-0.7822
1772930846987.6982,0.0565,-0.5845,-0.7759
1772930847004.043,0.0572,-0.5855,-0.7721
1772930847004.043,0.0555,-0.5864,-0.7723
1772930847004.043,0.0564,-0.5887,-0.768
1772930847004.043,0.0554,-0.5917,-0.7681
1772930847004.043,0.0536,-0.5963,-0.7691
1772930847004.043,0.05,-0.5953,-0.769
1772930847004.043,0.0463,-0.5988,-0.7737
1772930847004.043,0.0449,-0.6004,-0.7726
1772930847020.1467,0.0455,-0.6001,-0.7757
1772930847020.1467,0.0447,-0.5991,-0.7752
1772930847020.1467,0.0417,-0.5996,-0.7815
1772930847020.1467,0.0379,-0.5977,-0.7844
1772930847020.1467,0.0359,-0.5972,-0.7882
1772930847020.1467,0.0346,-0.5966,-0.7932
1772930847020.1467,0.0351,-0.594,-0.7939
1772930847020.1467,0.0321,-0.5918,-0.8028
1772930847035.6838,0.0289,-0.5891,-0.8144
1772930847035.6838,0.0283,-0.5899,-0.8211
1772930847035.6838,0.0245,-0.5876,-0.831
1772930847035.6838,0.0256,-0.5837,-0.8409
1772930847035.6838,0.025,-0.5811,-0.8486
1772930847035.6838,0.0256,-0.5827,-0.8533
1772930847035.6838,0.0274,-0.583,-0.8509
1772930847035.6838,0.0307,-0.584,-0.8481
1772930847051.2722,0.0353,-0.5839,-0.8448
1772930847051.2722,0.0384,-0.5846,-0.8366
1772930847051.2722,0.0425,-0.5895,-0.8187
1772930847051.2722,0.0428,-0.589,-0.8119
1772930847051.2722,0.0502,-0.5861,-0.7971
1772930847051.2722,0.0517,-0.5827,-0.7909
1772930847051.2722,0.055,-0.5799,-0.7883
1772930847051.2722,0.0587,-0.5807,-0.7874
1772930847067.1296,0.0612,-0.58,-0.7839
1772930847067.1296,0.0596,-0.5795,-0.7828
1772930847067.1296,0.0615,-0.5807,-0.7831
1772930847067.1296,0.0598,-0.5796,-0.7843
1772930847067.1296,0.0531,-0.5818,-0.7876
1772930847083.1885,0.0511,-0.5859,-0.786
1772930847083.1885,0.0503,-0.5858,-0.7857
1772930847083.1885,0.0415,-0.5946,-0.7821
1772930847083.1885,0.0425,-0.5986,-0.7778
1772930847083.1885,0.0407,-0.5966,-0.772
1772930847083.1885,0.0406,-0.6006,-0.7689
1772930847083.1885,0.0401,-0.6065,-0.7621
1772930847083.1885,0.0426,-0.6079,-0.7548
1772930847098.3604,0.0461,-0.6086,-0.7496
1772930847098.3604,0.0454,-0.6077,-0.7458
1772930847098.3604,0.047,-0.6007,-0.7437
1772930847098.3604,0.0484,-0.5966,-0.7465
1772930847098.3604,0.0498,-0.6089,-0.7474
1772930847098.3604,0.0482,-0.5892,-0.7469
1772930847098.3604,0.0453,-0.5857,-0.7488
1772930847098.3604,0.0357,-0.5817,-0.7544
1772930847113.589,0.036,-0.5798,-0.755
1772930847113.589,0.0287,-0.5785,-0.7563
1772930847113.589,0.0242,-0.5768,-0.7614
1772930847113.589,0.0222,-0.5756,-0.7621
1772930847113.589,0.0198,-0.575,-0.767
1772930847113.589,0.0164,-0.5757,-0.7693
1772930847113.589,0.0141,-0.5743,-0.773
1772930847113.589,0.0137,-0.5749,-0.7763
1772930847128.5654,0.0153,-0.5732,-0.7775
1772930847128.5654,0.0147,-0.5753,-0.7782
1772930847128.5654,0.0159,-0.5746,-0.7815
1772930847128.5654,0.0154,-0.5724,-0.782
1772930847128.5654,0.0307,-0.5727,-0.7847
1772930847128.5654,0.0141,-0.5732,-0.7829
1772930847128.5654,0.0193,-0.5725,-0.7815
1772930847128.5654,0.0204,-0.5725,-0.7874
1772930847144.1477,0.0245,-0.5713,-0.786
1772930847144.1477,0.0249,-0.5706,-0.7858
1772930847144.1477,0.0259,-0.5682,-0.7862
1772930847144.1477,0.0271,-0.5682,-0.7859
1772930847144.1477,0.0344,-0.5678,-0.7842
1772930847159.791,0.0373,-0.5695,-0.7803
1772930847159.791,0.0343,-0.5701,-0.782
1772930847159.791,0.0387,-0.5722,-0.781
1772930847159.791,0.0408,-0.5748,-0.779
1772930847159.791,0.0411,-0.5739,-0.7792
1772930847159.791,0.0437,-0.5746,-0.7745
1772930847159.791,0.0469,-0.5747,-0.7765
1772930847159.791,0.0437,-0.5786,-0.7752
1772930847174.9705,0.0456,-0.5768,-0.7749
1772930847174.9705,0.0439,-0.5801,-0.7765
1772930847174.9705,0.047,-0.5788,-0.7771
1772930847174.9705,0.0454,-0.5799,-0.7751
1772930847174.9705,0.0422,-0.5802,-0.7734
1772930847174.9705,0.0422,-0.58,-0.7779
1772930847174.9705,0.0411,-0.5811,-0.7771
1772930847174.9705,0.0382,-0.5839,-0.7815
1772930847190.2637,0.0363,-0.5858,-0.7788
1772930847190.2637,0.0376,-0.5856,-0.7813
1772930847190.2637,0.0339,-0.5876,-0.7826
1772930847190.2637,0.0338,-0.5884,-0.7832
1772930847190.2637,0.033,-0.5891,-0.7857
1772930847190.2637,0.0323,-0.5902,-0.7862
1772930847190.2637,0.0289,-0.5897,-0.787
1772930847190.2637,0.0307,-0.5905,-0.7829
1772930847206.1982,0.0306,-0.5898,-0.786
1772930847206.1982,0.0284,-0.5903,-0.7885
1772930847206.1982,0.0278,-0.5937,-0.7873
1772930847206.1982,0.0276,-0.5916,-0.7855
1772930847206.1982,0.0309,-0.5924,-0.7878
1772930847206.1982,0.0284,-0.5919,-0.7888
1772930847206.1982,0.0292,-0.5945,-0.7878
1772930847206.1982,0.0321,-0.5902,-0.787
1772930847222.2942,0.0339,-0.5897,-0.7881
1772930847222.2942,0.0313,-0.5901,-0.7856
1772930847222.2942,0.0334,-0.5885,-0.7873
1772930847222.2942,0.0362,-0.589,-0.7839
1772930847222.2942,0.0371,-0.5896,-0.7832
1772930847222.2942,0.0386,-0.5898,-0.7858
1772930847238.3733,0.0379,-0.5898,-0.7811
1772930847238.3733,0.0399,-0.5888,-0.7819
1772930847238.3733,0.0406,-0.5891,-0.7818
1772930847238.3733,0.0414,-0.5896,-0.7799
1772930847238.3733,0.0426,-0.5901,-0.7768
1772930847238.3733,0.0429,-0.5913,-0.7768
1772930847238.3733,0.0406,-0.5912,-0.7782
1772930847238.3733,0.044,-0.5918,-0.7736
1772930847254.4878,0.0432,-0.5935,-0.772
1772930847254.4878,0.0418,-0.5903,-0.7732
1772930847254.4878,0.042,-0.5888,-0.7719
1772930847254.4878,0.0417,-0.5901,-0.7734
1772930847254.4878,0.0393,-0.5868,-0.7719
1772930847254.4878,0.0375,-0.588,-0.7724
1772930847254.4878,0.0362,-0.5878,-0.7729
1772930847254.4878,0.0356,-0.5883,-0.7743
1772930847269.8728,0.0367,-0.5855,-0.777
1772930847269.8728,0.0338,-0.586,-0.7779
1772930847269.8728,0.0334,-0.5851,-0.7801
1772930847269.8728,0.0325,-0.5826,-0.7835
1772930847269.8728,0.0337,-0.583,-0.7868
1772930847269.8728,0.0337,-0.5805,-0.7904
1772930847269.8728,0.0311,-0.5799,-0.797
1772930847269.8728,0.0299,-0.5782,-0.7958
1772930847285.588,0.0296,-0.58,-0.7984
1772930847285.588,0.0295,-0.5758,-0.8018
1772930847285.588,0.03,-0.5777,-0.8032
1772930847285.588,0.0284,-0.5768,-0.8034
1772930847285.588,0.0318,-0.5762,-0.8
1772930847285.588,0.0337,-0.5744,-0.801
1772930847285.588,0.0362,-0.5763,-0.7976
1772930847285.588,0.0359,-0.5754,-0.7975
1772930847300.8928,0.0386,-0.5752,-0.7941
1772930847300.8928,0.0414,-0.5749,-0.7948
1772930847300.8928,0.0409,-0.5743,-0.7916
1772930847300.8928,0.0414,-0.5751,-0.794
1772930847300.8928,0.0444,-0.5743,-0.7884
1772930847300.8928,0.0441,-0.5761,-0.789
1772930847300.8928,0.0462,-0.5764,-0.7892
1772930847300.8928,0.047,-0.5761,-0.788
1772930847316.6072,0.0462,-0.5782,-0.7874
1772930847316.6072,0.0443,-0.5832,-0.7856
1772930847316.6072,0.0437,-0.5843,-0.7849
1772930847316.6072,0.0456,-0.5851,-0.784
1772930847316.6072,0.042,-0.5873,-0.7871
1772930847331.8772,0.0411,-0.5873,-0.7888
1772930847331.8772,0.0387,-0.5895,-0.787
1772930847331.8772,0.04,-0.5886,-0.7879
1772930847331.8772,0.0381,-0.591,-0.7859
1772930847331.8772,0.0353,-0.5902,-0.7843
1772930847331.8772,0.0341,-0.5923,-0.7866
1772930847331.8772,0.0337,-0.5916,-0.7884
1772930847331.8772,0.031,-0.5924,-0.786
1772930847347.4604,0.0321,-0.5885,-0.7849
1772930847347.4604,0.0335,-0.5905,-0.7864
1772930847347.4604,0.0337,-0.5888,-0.7857
1772930847347.4604,0.032,-0.5864,-0.7851
1772930847347.4604,0.0357,-0.5893,-0.7853
1772930847347.4604,0.0329,-0.5887,-0.7859
1772930847347.4604,0.033,-0.5865,-0.7859
1772930847347.4604,0.0368,-0.5852,-0.7859
1772930847363.082,0.0374,-0.5828,-0.7862
1772930847363.082,0.0367,-0.584,-0.7868
1772930847363.082,0.0357,-0.586,-0.7856
1772930847363.082,0.0369,-0.5824,-0.7871
1772930847363.082,0.0379,-0.5824,-0.7848
1772930847363.082,0.0383,-0.5836,-0.7866
1772930847363.082,0.0388,-0.5818,-0.7907
1772930847363.082,0.0415,-0.5843,-0.7892
1772930847379.1777,0.0392,-0.581,-0.789
1772930847379.1777,0.0399,-0.5821,-0.7897
1772930847379.1777,0.0415,-0.5816,-0.7879
1772930847379.1777,0.0431,-0.5815,-0.7891
1772930847379.1777,0.0452,-0.582,-0.7876
1772930847379.1777,0.0446,-0.5805,-0.7909
1772930847379.1777,0.0453,-0.5819,-0.7919
1772930847379.1777,0.0475,-0.583,-0.789
1772930847394.732,0.0486,-0.5819,-0.7884
1772930847394.732,0.05,-0.5843,-0.7865
1772930847394.732,0.0487,-0.5827,-0.7868
1772930847394.732,0.0519,-0.5838,-0.7878
1772930847394.732,0.0502,-0.5835,-0.7888
1772930847410.1697,0.0508,-0.5843,-0.7891
1772930847410.1697,0.0517,-0.5844,-0.7855
1772930847410.1697,0.051,-0.5881,-0.7857
1772930847410.1697,0.0502,-0.5857,-0.7881
1772930847410.1697,0.0506,-0.5852,-0.7871
1772930847410.1697,0.0515,-0.5872,-0.7869
1772930847410.1697,0.0517,-0.5863,-0.7874
1772930847410.1697,0.0499,-0.5855,-0.7862
1772930847424.9497,0.0503,-0.5865,-0.7859
1772930847424.9497,0.051,-0.584,-0.7866
1772930847424.9497,0.0509,-0.5842,-0.7862
1772930847424.9497,0.0483,-0.5872,-0.7882
1772930847424.9497,0.0487,-0.5844,-0.7889
1772930847424.9497,0.0501,-0.5849,-0.7909
1772930847424.9497,0.0479,-0.5841,-0.7896
1772930847424.9497,0.0451,-0.5857,-0.7907
1772930847441.4778,0.0459,-0.5818,-0.7898
1772930847441.4778,0.0451,-0.5807,-0.7887
1772930847441.4778,0.0428,-0.5815,-0.7879
1772930847441.4778,0.0426,-0.582,-0.7893
1772930847441.4778,0.0445,-0.5829,-0.7865
1772930847441.4778,0.0405,-0.5824,-0.7923
1772930847441.4778,0.0397,-0.5812,-0.7896
1772930847441.4778,0.0404,-0.5815,-0.7889
1772930847456.843,0.0379,-0.5819,-0.7894
1772930847456.843,0.0381,-0.5796,-0.7897
1772930847456.843,0.0364,-0.5794,-0.7892
1772930847456.843,0.0361,-0.5794,-0.7903
1772930847456.843,0.0371,-0.5802,-0.7889
1772930847456.843,0.0382,-0.5807,-0.7911
1772930847456.843,0.0353,-0.5807,-0.7912
1772930847456.843,0.0343,-0.5816,-0.7881
1772930847472.0059,0.0351,-0.5804,-0.7896
1772930847472.0059,0.0341,-0.5801,-0.7898
1772930847472.0059,0.0339,-0.5836,-0.7896
1772930847472.0059,0.0345,-0.5847,-0.7879
1772930847472.0059,0.0353,-0.583,-0.7891
1772930847472.0059,0.0343,-0.5828,-0.7877
1772930847487.5547,0.0345,-0.5858,-0.7889
1772930847487.5547,0.0389,-0.5861,-0.7901
1772930847487.5547,0.0378,-0.5874,-0.7903
1772930847487.5547,0.0396,-0.5869,-0.785
1772930847487.5547,0.0373,-0.5888,-0.788
1772930847487.5547,0.0387,-0.5901,-0.7853
1772930847487.5547,0.044,-0.5897,-0.7843
1772930847487.5547,0.04,-0.5885,-0.7859
1772930847503.6904,0.0447,-0.5869,-0.7862
1772930847503.6904,0.0456,-0.5879,-0.7859
1772930847503.6904,0.0433,-0.5894,-0.7868
1772930847503.6904,0.0431,-0.5879,-0.7892
1772930847503.6904,0.0465,-0.5856,-0.7841
1772930847503.6904,0.0454,-0.5864,-0.7858
1772930847503.6904,0.0442,-0.5845,-0.7864
1772930847503.6904,0.0438,-0.5838,-0.7848
1772930847519.7773,0.044,-0.5839,-0.7835
1772930847519.7773,0.0418,-0.5843,-0.7837
1772930847519.7773,0.0401,-0.5833,-0.7856
1772930847519.7773,0.0387,-0.5824,-0.7871
1772930847519.7773,0.0381,-0.5819,-0.7853
1772930847519.7773,0.0384,-0.583,-0.7878
1772930847519.7773,0.0367,-0.5807,-0.7878
1772930847519.7773,0.0354,-0.5799,-0.7862
1772930847534.9624,0.036,-0.5791,-0.7881
1772930847534.9624,0.0362,-0.5788,-0.7849
1772930847534.9624,0.0343,-0.5825,-0.7859
1772930847534.9624,0.0343,-0.5806,-0.7867
1772930847534.9624,0.0314,-0.583,-0.7867
1772930847534.9624,0.0339,-0.5823,-0.783
1772930847534.9624,0.0331,-0.5818,-0.7837
1772930847534.9624,0.0344,-0.584,-0.7848
1772930847551.0513,0.0346,-0.5823,-0.7837
1772930847551.0513,0.0361,-0.5835,-0.7862
1772930847551.0513,0.0361,-0.5826,-0.7831
1772930847551.0513,0.0393,-0.5835,-0.7837
1772930847551.0513,0.0378,-0.5839,-0.7841
1772930847551.0513,0.0398,-0.583,-0.7837
1772930847551.0513,0.0413,-0.5817,-0.7834
1772930847551.0513,0.0407,-0.5824,-0.7818
1772930847566.4604,0.0457,-0.5833,-0.7803
1772930847566.4604,0.0474,-0.5803,-0.7798
1772930847566.4604,0.045,-0.5818,-0.7825
1772930847566.4604,0.0457,-0.5839,-0.7795
1772930847566.4604,0.0472,-0.5838,-0.7796
1772930847582.091,0.0478,-0.5834,-0.7781
1772930847582.091,0.0489,-0.5831,-0.7799
1772930847582.091,0.0484,-0.5825,-0.7804
1772930847582.091,0.0492,-0.5852,-0.781
1772930847582.091,0.0475,-0.585,-0.7796
1772930847582.091,0.0474,-0.5843,-0.7815
1772930847582.091,0.0468,-0.5856,-0.7835
1772930847582.091,0.048,-0.584,-0.7803
1772930847597.3743,0.0459,-0.5849,-0.7862
1772930847597.3743,0.0478,-0.5829,-0.7824
1772930847597.3743,0.0475,-0.583,-0.7848
1772930847597.3743,0.0476,-0.5824,-0.786
1772930847597.3743,0.0464,-0.5835,-0.7864
1772930847597.3743,0.0453,-0.5833,-0.7849
1772930847597.3743,0.0451,-0.5836,-0.7857
1772930847597.3743,0.0429,-0.5871,-0.7874
1772930847613.066,0.0441,-0.5859,-0.786
1772930847613.066,0.0419,-0.5847,-0.7844
1772930847613.066,0.044,-0.585,-0.7872
1772930847613.066,0.0407,-0.5846,-0.7871
1772930847613.066,0.0423,-0.5846,-0.7857
1772930847613.066,0.0408,-0.5846,-0.7856
1772930847613.066,0.0407,-0.5866,-0.7851
1772930847613.066,0.041,-0.5852,-0.7845
1772930847628.6128,0.044,-0.586,-0.7868
1772930847628.6128,0.0428,-0.5845,-0.7856
1772930847628.6128,0.042,-0.5856,-0.7873
1772930847628.6128,0.0413,-0.5856,-0.788
1772930847628.6128,0.0415,-0.5882,-0.7871
1772930847628.6128,0.0448,-0.5885,-0.7856
1772930847628.6128,0.0411,-0.5885,-0.7874
1772930847628.6128,0.0412,-0.5879,-0.7893
1772930847644.0762,0.0409,-0.5885,-0.7872
1772930847644.0762,0.0419,-0.589,-0.7903
1772930847644.0762,0.0419,-0.5888,-0.7918
1772930847644.0762,0.0417,-0.589,-0.7925
1772930847644.0762,0.0419,-0.5868,-0.7896
1772930847659.1377,0.042,-0.5868,-0.7902
1772930847659.1377,0.039,-0.5899,-0.7925
1772930847659.1377,0.042,-0.5905,-0.7936
1772930847659.1377,0.0431,-0.59,-0.793
1772930847659.1377,0.0433,-0.5896,-0.7891
1772930847659.1377,0.0437,-0.5877,-0.7901
1772930847659.1377,0.0445,-0.5871,-0.7891
1772930847659.1377,0.0478,-0.5849,-0.7863
1772930847675.218,0.0456,-0.5866,-0.7892
1772930847675.218,0.0453,-0.5844,-0.7853
1772930847675.218,0.0479,-0.5852,-0.7874
1772930847675.218,0.0486,-0.5827,-0.7828
1772930847675.218,0.0472,-0.584,-0.7885
1772930847675.218,0.0449,-0.586,-0.7876
1772930847675.218,0.0481,-0.5849,-0.7878
1772930847675.218,0.0448,-0.5843,-0.7895
1772930847691.318,0.0433,-0.5854,-0.7873
1772930847691.318,0.0443,-0.5841,-0.7878
1772930847691.318,0.0435,-0.5852,-0.7891
1772930847691.318,0.0425,-0.5855,-0.7867
1772930847691.318,0.0417,-0.5835,-0.7835
1772930847691.318,0.0404,-0.583,-0.7864
1772930847691.318,0.0401,-0.5818,-0.7867
1772930847691.318,0.039,-0.5847,-0.7865
1772930847706.9211,0.0379,-0.5813,-0.7862
1772930847706.9211,0.0386,-0.5807,-0.7876
1772930847706.9211,0.0357,-0.5807,-0.7833
1772930847706.9211,0.0346,-0.5798,-0.7846
1772930847706.9211,0.0353,-0.5797,-0.7847
1772930847706.9211,0.0311,-0.58,-0.7875
1772930847706.9211,0.0323,-0.5775,-0.7829
1772930847706.9211,0.0321,-0.5769,-0.7864
1772930847722.9985,0.0306,-0.579,-0.7846
1772930847722.9985,0.0278,-0.5778,-0.7851
1772930847722.9985,0.029,-0.5774,-0.7845
1772930847722.9985,0.0281,-0.5802,-0.7828
1772930847722.9985,0.0271,-0.5816,-0.7859
1772930847722.9985,0.03,-0.5811,-0.7841
1772930847722.9985,0.0271,-0.5829,-0.7841
1772930847722.9985,0.0259,-0.5815,-0.7842
1772930847738.5793,0.0259,-0.5803,-0.787
1772930847738.5793,0.0263,-0.5813,-0.7829
1772930847738.5793,0.027,-0.5822,-0.7839
1772930847738.5793,0.0281,-0.5822,-0.7823
1772930847738.5793,0.0255,-0.5851,-0.7841
1772930847738.5793,0.0287,-0.5813,-0.7826
1772930847754.8367,0.0307,-0.5832,-0.784
1772930847754.8367,0.0293,-0.5838,-0.7837
1772930847754.8367,0.033,-0.5836,-0.7834
1772930847754.8367,0.0335,-0.5822,-0.7816
1772930847754.8367,0.0322,-0.5827,-0.7854
1772930847754.8367,0.0356,-0.5844,-0.7837
1772930847754.8367,0.0359,-0.5847,-0.7859
1772930847754.8367,0.0361,-0.5844,-0.7849
1772930847770.0183,0.0363,-0.5861,-0.7818
1772930847770.0183,0.0346,-0.5852,-0.7853
1772930847770.0183,0.0368,-0.5857,-0.7864
1772930847770.0183,0.0365,-0.5836,-0.7848
1772930847770.0183,0.039,-0.5841,-0.7836
1772930847770.0183,0.0368,-0.5867,-0.7871
1772930847770.0183,0.0381,-0.5827,-0.7857
1772930847770.0183,0.0395,-0.5844,-0.7879
1772930847785.112,0.0397,-0.584,-0.7878
1772930847785.112,0.0377,-0.5851,-0.787
1772930847785.112,0.04,-0.5832,-0.7885
1772930847785.112,0.039,-0.5833,-0.7874
1772930847785.112,0.0379,-0.5836,-0.7887
1772930847785.112,0.0392,-0.5847,-0.789
1772930847785.112,0.0389,-0.5841,-0.7871
1772930847785.112,0.0408,-0.586,-0.7917
1772930847800.7036,0.0417,-0.5861,-0.7917
1772930847800.7036,0.0407,-0.5864,-0.7893
1772930847800.7036,0.0425,-0.5857,-0.7907
1772930847800.7036,0.0375,-0.5853,-0.7908
1772930847800.7036,0.0388,-0.5839,-0.7912
1772930847800.7036,0.0392,-0.5824,-0.7895
1772930847800.7036,0.0391,-0.5857,-0.7944
1772930847800.7036,0.0418,-0.5823,-0.7925
1772930847815.9736,0.0415,-0.5802,-0.79
1772930847815.9736,0.0428,-0.5829,-0.7898
1772930847815.9736,0.0424,-0.5826,-0.791
1772930847815.9736,0.044,-0.5809,-0.789
1772930847815.9736,0.0436,-0.5815,-0.7876
1772930847831.123,0.0438,-0.581,-0.7887
1772930847831.123,0.0443,-0.5803,-0.7872
1772930847831.123,0.0467,-0.5794,-0.7882
1772930847831.123,0.0448,-0.5798,-0.7882
1772930847831.123,0.044,-0.5779,-0.7869
1772930847831.123,0.0439,-0.5752,-0.7849
1772930847831.123,0.0423,-0.5751,-0.788
1772930847831.123,0.039,-0.5766,-0.7862
1772930847847.2195,0.0411,-0.576,-0.7887
1772930847847.2195,0.0419,-0.5751,-0.7867
1772930847847.2195,0.0417,-0.5747,-0.7876
1772930847847.2195,0.0414,-0.5787,-0.7883
1772930847847.2195,0.0405,-0.5775,-0.7897
1772930847847.2195,0.0393,-0.5769,-0.7887
1772930847847.2195,0.0393,-0.5762,-0.7906
1772930847847.2195,0.0371,-0.5753,-0.7898
1772930847862.8718,0.0407,-0.578,-0.7863
1772930847862.8718,0.0401,-0.5784,-0.7877
1772930847862.8718,0.0379,-0.5775,-0.7856
1772930847862.8718,0.04,-0.5807,-0.7823
1772930847862.8718,0.0384,-0.5854,-0.7807
1772930847862.8718,0.0414,-0.5854,-0.7767
1772930847862.8718,0.0411,-0.5858,-0.7786
1772930847862.8718,0.0366,-0.5871,-0.7781
1772930847879.4434,0.034,-0.5843,-0.7792
1772930847879.4434,0.0352,-0.5848,-0.7791
1772930847879.4434,0.0329,-0.5861,-0.7774
1772930847879.4434,0.0315,-0.5887,-0.7765
1772930847879.4434,0.0294,-0.5862,-0.7804
1772930847879.4434,0.0273,-0.5879,-0.7819
1772930847879.4434,0.0282,-0.5874,-0.7845
1772930847879.4434,0.0283,-0.5858,-0.7896
1772930847894.3538,0.0268,-0.5882,-0.7896
1772930847894.3538,0.0252,-0.5872,-0.7967
1772930847894.3538,0.0268,-0.588,-0.7962
1772930847894.3538,0.0295,-0.5918,-0.8006
1772930847894.3538,0.0323,-0.5916,-0.8003
1772930847909.956,0.0356,-0.5918,-0.8007
1772930847909.956,0.037,-0.5898,-0.8031
1772930847909.956,0.0396,-0.5876,-0.8041
1772930847909.956,0.0441,-0.5847,-0.799
1772930847909.956,0.0458,-0.5844,-0.8015
1772930847909.956,0.0467,-0.5806,-0.7984
1772930847909.956,0.0492,-0.5768,-0.7957
1772930847909.956,0.0492,-0.5769,-0.7973
1772930847925.1912,0.0482,-0.57,-0.791
1772930847925.1912,0.0467,-0.5697,-0.796
1772930847925.1912,0.0482,-0.5718,-0.7953
1772930847925.1912,0.0477,-0.5705,-0.7937
1772930847925.1912,0.0504,-0.5747,-0.7908
1772930847925.1912,0.0518,-0.5756,-0.7864
1772930847925.1912,0.0524,-0.5777,-0.7824
1772930847925.1912,0.0539,-0.5805,-0.7818
1772930847941.352,0.0544,-0.5805,-0.7788
1772930847941.352,0.0526,-0.578,-0.7759
1772930847941.352,0.0506,-0.5799,-0.7731
1772930847941.352,0.0473,-0.5807,-0.7742
1772930847941.352,0.0475,-0.5847,-0.7756
1772930847941.352,0.0427,-0.5828,-0.772
1772930847941.352,0.0425,-0.5877,-0.7729
1772930847941.352,0.0418,-0.5876,-0.7751
1772930847956.8914,0.0384,-0.5888,-0.772
1772930847956.8914,0.0361,-0.5846,-0.7765
1772930847956.8914,0.0326,-0.5852,-0.7792
1772930847956.8914,0.0312,-0.5852,-0.7825
1772930847956.8914,0.029,-0.5882,-0.7815
1772930847956.8914,0.0301,-0.5869,-0.7856
1772930847956.8914,0.0255,-0.5852,-0.7908
1772930847956.8914,0.0265,-0.5822,-0.7962
1772930847973.001,0.0286,-0.5819,-0.7987
1772930847973.001,0.0276,-0.5784,-0.8035
1772930847973.001,0.026,-0.5758,-0.8114
1772930847973.001,0.026,-0.5735,-0.8195
1772930847973.001,0.0262,-0.5763,-0.824
1772930847973.001,0.026,-0.5725,-0.8317
1772930847973.001,0.0293,-0.5759,-0.8373
1772930847973.001,0.0296,-0.5747,-0.8379
1772930847988.3162,0.0318,-0.5771,-0.8392
1772930847988.3162,0.0382,-0.5793,-0.8367
1772930847988.3162,0.0424,-0.5807,-0.8338
1772930847988.3162,0.045,-0.586,-0.821
1772930847988.3162,0.0477,-0.5833,-0.8122
1772930847988.3162,0.0547,-0.5833,-0.8044
1772930848004.4214,0.0536,-0.5817,-0.8004
1772930848004.4214,0.0581,-0.58,-0.7925
1772930848004.4214,0.0644,-0.5772,-0.7886
1772930848004.4214,0.0651,-0.5777,-0.7902
1772930848004.4214,0.0646,-0.5806,-0.7844
1772930848004.4214,0.0646,-0.583,-0.7862
1772930848004.4214,0.0626,-0.5812,-0.7889
1772930848004.4214,0.0605,-0.5847,-0.7923
1772930848019.9653,0.0564,-0.5851,-0.7947
1772930848019.9653,0.0508,-0.5886,-0.794
1772930848019.9653,0.046,-0.5888,-0.796
1772930848019.9653,0.0418,-0.5889,-0.7973
1772930848019.9653,0.039,-0.5938,-0.7923
1772930848019.9653,0.038,-0.5957,-0.7843
1772930848019.9653,0.0352,-0.5977,-0.7823
1772930848019.9653,0.0345,-0.5954,-0.7774
1772930848034.972,0.0367,-0.5976,-0.7737
1772930848034.972,0.0391,-0.5979,-0.77
1772930848034.972,0.0414,-0.5966,-0.7716
1772930848034.972,0.0412,-0.5944,-0.7695
1772930848034.972,0.0418,-0.5904,-0.7695
1772930848034.972,0.0382,-0.5836,-0.7708
1772930848034.972,0.0383,-0.5837,-0.7684
1772930848034.972,0.0375,-0.5811,-0.7698
1772930848051.0505,0.0353,-0.5776,-0.7713
1772930848051.0505,0.0356,-0.5788,-0.7712
1772930848051.0505,0.0324,-0.5785,-0.7746
1772930848051.0505,0.0322,-0.5766,-0.7767
1772930848051.0505,0.0295,-0.5623,-0.7768
1772930848051.0505,0.0303,-0.5775,-0.7767
1772930848051.0505,0.0276,-0.5761,-0.7773
1772930848051.0505,0.0264,-0.5797,-0.7792
1772930848066.6577,0.0282,-0.5744,-0.7812
1772930848066.6577,0.0301,-0.5765,-0.7851
1772930848066.6577,0.0287,-0.5752,-0.7834
1772930848066.6577,0.0298,-0.5729,-0.7863
1772930848066.6577,0.0337,-0.5732,-0.786
1772930848083.2415,0.0354,-0.5705,-0.7865
1772930848083.2415,0.0341,-0.5709,-0.7859
1772930848083.2415,0.0334,-0.5732,-0.7848
1772930848083.2415,0.0351,-0.5706,-0.7864
1772930848083.2415,0.0375,-0.5689,-0.7863
1772930848083.2415,0.0362,-0.5673,-0.7845
1772930848083.2415,0.0386,-0.5673,-0.7857
1772930848083.2415,0.0371,-0.5644,-0.7869
1772930848099.8657,0.0398,-0.565,-0.7898
1772930848099.8657,0.0376,-0.5646,-0.7867
1772930848099.8657,0.0387,-0.5635,-0.7873
1772930848099.8657,0.0423,-0.5642,-0.7868
1772930848099.8657,0.0416,-0.5668,-0.7855
1772930848099.8657,0.0422,-0.5656,-0.7829
1772930848099.8657,0.0426,-0.5675,-0.7822
1772930848099.8657,0.0411,-0.5663,-0.7811
1772930848115.776,0.0446,-0.5695,-0.7831
1772930848115.776,0.0426,-0.5692,-0.7809
1772930848115.776,0.0422,-0.5705,-0.7839
1772930848115.776,0.0397,-0.5721,-0.7826
1772930848115.776,0.0429,-0.5721,-0.7839
1772930848115.776,0.0409,-0.5734,-0.7835
1772930848115.776,0.0384,-0.5754,-0.7845
1772930848115.776,0.0364,-0.5772,-0.7834
1772930848131.1067,0.0369,-0.5786,-0.785
1772930848131.1067,0.0332,-0.5803,-0.7814
1772930848131.1067,0.0375,-0.5779,-0.7853
1772930848131.1067,0.0406,-0.5816,-0.7831
1772930848131.1067,0.0279,-0.6298,-0.7809
1772930848131.1067,0.014,-0.6084,-0.7911
1772930848131.1067,0.0278,-0.5871,-0.7892
1772930848131.1067,0.0504,-0.5497,-0.7771
1772930848146.1833,0.0429,-0.5611,-0.7843
1772930848146.1833,0.0366,-0.5755,-0.7904
1772930848146.1833,0.0292,-0.5926,-0.7937
1772930848146.1833,0.0289,-0.5994,-0.7861
1772930848146.1833,0.0299,-0.5938,-0.7854
1772930848146.1833,0.0343,-0.5925,-0.7884
1772930848146.1833,0.0318,-0.5816,-0.7845
1772930848146.1833,0.0311,-0.5863,-0.7895
1772930848161.5398,0.0325,-0.5906,-0.7918
1772930848161.5398,0.0317,-0.5932,-0.7953
1772930848161.5398,0.0374,-0.5928,-0.7928
1772930848161.5398,0.0359,-0.5919,-0.7943
1772930848161.5398,0.0401,-0.5868,-0.7899
1772930848177.1523,0.0387,-0.5861,-0.7918
1772930848177.1523,0.0396,-0.5849,-0.7887
1772930848177.1523,0.0412,-0.5852,-0.7907
1772930848177.1523,0.04,-0.5867,-0.7867
1772930848177.1523,0.0375,-0.5903,-0.7835
1772930848177.1523,0.0457,-0.5969,-0.7892
1772930848177.1523,0.0497,-0.5852,-0.7898
1772930848177.1523,0.0477,-0.5929,-0.7843
1772930848193.3372,0.0492,-0.5788,-0.7804
1772930848193.3372,0.0475,-0.5876,-0.7858
1772930848193.3372,0.0434,-0.5866,-0.7862
1772930848193.3372,0.0461,-0.5916,-0.7886
1772930848193.3372,0.0536,-0.6048,-0.7899
1772930848193.3372,0.0614,-0.6181,-0.7864
1772930848193.3372,0.054,-0.5982,-0.7832
1772930848193.3372,0.0655,-0.6054,-0.7864
1772930848208.9507,0.0558,-0.5816,-0.7871
1772930848208.9507,0.0339,-0.5602,-0.7914
1772930848208.9507,0.0158,-0.5621,-0.7933
1772930848208.9507,0.0042,-0.5594,-0.7951
1772930848208.9507,0.0015,-0.5571,-0.7961
1772930848208.9507,0.0117,-0.558,-0.7992
1772930848208.9507,0.0186,-0.5844,-0.802
1772930848208.9507,0.0224,-0.5908,-0.8129
1772930848224.733,0.0315,-0.5898,-0.8111
1772930848224.733,0.0433,-0.5769,-0.8076
1772930848224.733,0.0475,-0.5801,-0.8024
1772930848224.733,0.0476,-0.5824,-0.804
1772930848224.733,0.0464,-0.5813,-0.8011
1772930848224.733,0.0476,-0.5819,-0.7986
1772930848224.733,0.048,-0.5797,-0.7954
1772930848224.733,0.0504,-0.5776,-0.795
1772930848240.7542,0.052,-0.5754,-0.7896
1772930848240.7542,0.0522,-0.576,-0.7914
1772930848240.7542,0.0516,-0.5766,-0.7905
1772930848240.7542,0.0501,-0.5782,-0.794
1772930848240.7542,0.0493,-0.5806,-0.7946
1772930848240.7542,0.0484,-0.5826,-0.7942
1772930848240.7542,0.0495,-0.5813,-0.7928
1772930848240.7542,0.0471,-0.5806,-0.7956
1772930848256.0986,0.0474,-0.5816,-0.7943
1772930848256.0986,0.0463,-0.5822,-0.7973
1772930848256.0986,0.0454,-0.5782,-0.7937
1772930848256.0986,0.0453,-0.5776,-0.7964
1772930848256.0986,0.0436,-0.5774,-0.7948
1772930848256.0986,0.0422,-0.5751,-0.7914
1772930848271.5479,0.0432,-0.576,-0.7946
1772930848271.5479,0.0426,-0.5757,-0.7939
1772930848271.5479,0.0437,-0.5757,-0.7896
1772930848271.5479,0.0445,-0.5755,-0.7929
1772930848271.5479,0.044,-0.5776,-0.7934
1772930848271.5479,0.0455,-0.5779,-0.7887
1772930848271.5479,0.0459,-0.5776,-0.7861
1772930848271.5479,0.047,-0.5747,-0.7918
1772930848286.83,0.0445,-0.575,-0.7884
1772930848286.83,0.044,-0.5751,-0.7907
1772930848286.83,0.0434,-0.5745,-0.7921
1772930848286.83,0.0403,-0.5746,-0.7928
1772930848286.83,0.0396,-0.5742,-0.7901
1772930848286.83,0.0423,-0.5728,-0.7931
1772930848286.83,0.0381,-0.5733,-0.7912
1772930848286.83,0.0389,-0.576,-0.792
1772930848303.4856,0.0381,-0.5751,-0.7934
1772930848303.4856,0.0389,-0.576,-0.7943
1772930848303.4856,0.0372,-0.5758,-0.7932
1772930848303.4856,0.0371,-0.5754,-0.7947
1772930848303.4856,0.0381,-0.5749,-0.7931
1772930848303.4856,0.0385,-0.5756,-0.794
1772930848303.4856,0.0373,-0.5758,-0.7937
1772930848303.4856,0.0346,-0.5751,-0.7929
1772930848318.9504,0.0371,-0.5737,-0.7932
1772930848318.9504,0.0364,-0.5743,-0.7907
1772930848318.9504,0.0353,-0.5746,-0.7918
1772930848318.9504,0.0359,-0.5749,-0.7919
1772930848318.9504,0.0354,-0.5757,-0.7952
1772930848318.9504,0.0348,-0.5754,-0.7921
1772930848318.9504,0.0351,-0.5743,-0.7914
1772930848318.9504,0.0379,-0.5722,-0.7938
1772930848334.5908,0.0355,-0.5735,-0.7917
1772930848334.5908,0.0384,-0.5739,-0.7903
1772930848334.5908,0.0362,-0.5722,-0.7931
1772930848334.5908,0.0375,-0.5731,-0.7946
1772930848334.5908,0.0407,-0.5736,-0.7935
1772930848334.5908,0.0405,-0.5735,-0.7903
1772930848334.5908,0.0401,-0.5719,-0.7913
1772930848334.5908,0.0421,-0.5714,-0.789
1772930848350.1626,0.04,-0.5696,-0.7931
1772930848350.1626,0.0408,-0.571,-0.7899
1772930848350.1626,0.0401,-0.5723,-0.7902
1772930848350.1626,0.0413,-0.568,-0.7918
1772930848350.1626,0.0421,-0.5694,-0.7925
1772930848366.1829,0.041,-0.5725,-0.791
1772930848366.1829,0.0396,-0.5729,-0.7907
1772930848366.1829,0.0393,-0.5724,-0.7923
1772930848366.1829,0.0406,-0.5756,-0.7917
1772930848366.1829,0.0425,-0.5743,-0.7897
1772930848366.1829,0.0421,-0.572,-0.7908
1772930848366.1829,0.0439,-0.5733,-0.793
1772930848366.1829,0.0456,-0.5747,-0.7884
1772930848381.8096,0.0442,-0.575,-0.7915
1772930848381.8096,0.0432,-0.5763,-0.7896
1772930848381.8096,0.0419,-0.5761,-0.786
1772930848381.8096,0.0395,-0.5749,-0.7874
1772930848381.8096,0.0365,-0.5741,-0.7908
1772930848381.8096,0.0398,-0.5763,-0.7898
1772930848381.8096,0.0337,-0.576,-0.7917
1772930848381.8096,0.0343,-0.575,-0.7925
1772930848397.2598,0.0341,-0.5762,-0.794
1772930848397.2598,0.0335,-0.5763,-0.7928
1772930848397.2598,0.029,-0.5761,-0.7967
1772930848397.2598,0.0323,-0.5761,-0.7953
1772930848397.2598,0.032,-0.574,-0.7951
1772930848397.2598,0.0299,-0.5734,-0.7981
1772930848397.2598,0.03,-0.5765,-0.7935
1772930848397.2598,0.0269,-0.5756,-0.7979
1772930848412.9849,0.0304,-0.5735,-0.7978
1772930848412.9849,0.0276,-0.5741,-0.7952
1772930848412.9849,0.03,-0.5749,-0.798
1772930848412.9849,0.0278,-0.5752,-0.7983
1772930848412.9849,0.03,-0.5754,-0.7976
1772930848412.9849,0.0277,-0.572,-0.799
1772930848412.9849,0.03,-0.5729,-0.7977
1772930848412.9849,0.0296,-0.5694,-0.7962
1772930848429.5305,0.0308,-0.5711,-0.7963
1772930848429.5305,0.0317,-0.571,-0.7948
1772930848429.5305,0.0337,-0.568,-0.7951
1772930848429.5305,0.0351,-0.5702,-0.7946
1772930848429.5305,0.0369,-0.5684,-0.7958
1772930848429.5305,0.0384,-0.5683,-0.7932
1772930848429.5305,0.0354,-0.5693,-0.7947
1772930848429.5305,0.0364,-0.5679,-0.7944
1772930848445.3438,0.0376,-0.5704,-0.7924
1772930848445.3438,0.0393,-0.5666,-0.7951
1772930848445.3438,0.0379,-0.5662,-0.7968
1772930848445.3438,0.0384,-0.5671,-0.796
1772930848445.3438,0.0356,-0.5667,-0.7947
1772930848445.3438,0.0357,-0.5652,-0.7962
1772930848445.3438,0.0353,-0.5671,-0.7954
1772930848445.3438,0.0329,-0.5706,-0.7981
1772930848460.427,0.0329,-0.5693,-0.7961
1772930848460.427,0.0315,-0.5713,-0.7978
1772930848460.427,0.0314,-0.5712,-0.7942
1772930848460.427,0.0323,-0.5723,-0.7951
1772930848460.427,0.0319,-0.5714,-0.7987
1772930848476.0325,0.0354,-0.5707,-0.7963
1772930848476.0325,0.0331,-0.573,-0.796
1772930848476.0325,0.0351,-0.5718,-0.798
1772930848476.0325,0.0334,-0.5735,-0.798
1772930848476.0325,0.0341,-0.5733,-0.7964
1772930848476.0325,0.0361,-0.5718,-0.7982
1772930848476.0325,0.0341,-0.5731,-0.7939
1772930848476.0325,0.0336,-0.5717,-0.7979
1772930848491.6382,0.0331,-0.5733,-0.7979
1772930848491.6382,0.0348,-0.5732,-0.7952
1772930848491.6382,0.0339,-0.5745,-0.7972
1772930848491.6382,0.0335,-0.5726,-0.797
1772930848491.6382,0.0326,-0.5721,-0.8022
1772930848491.6382,0.0326,-0.571,-0.7984
1772930848491.6382,0.0309,-0.5739,-0.8009
1772930848491.6382,0.0319,-0.5732,-0.7998
1772930848507.1736,0.0312,-0.5717,-0.799
1772930848507.1736,0.03,-0.5729,-0.7966
1772930848507.1736,0.0316,-0.5737,-0.8007
1772930848507.1736,0.0303,-0.5716,-0.8018
1772930848507.1736,0.0275,-0.5713,-0.7995
1772930848507.1736,0.0304,-0.5717,-0.798
1772930848507.1736,0.0289,-0.5724,-0.8008
1772930848507.1736,0.0294,-0.5725,-0.8024
1772930848522.8176,0.0273,-0.5713,-0.8029
1772930848522.8176,0.0276,-0.5702,-0.8031
1772930848522.8176,0.0259,-0.5727,-0.8009
1772930848522.8176,0.0263,-0.5744,-0.7987
1772930848522.8176,0.0273,-0.572,-0.7975
1772930848522.8176,0.0258,-0.5701,-0.7993
1772930848522.8176,0.0275,-0.5712,-0.8008
1772930848522.8176,0.026,-0.5726,-0.8012
1772930848537.9604,0.029,-0.5732,-0.7998
1772930848537.9604,0.027,-0.5705,-0.8007
1772930848537.9604,0.0298,-0.5718,-0.7992
1772930848537.9604,0.0321,-0.5733,-0.8024
1772930848537.9604,0.032,-0.5738,-0.7989
1772930848537.9604,0.0325,-0.5749,-0.7998
1772930848553.9417,0.0376,-0.5748,-0.8013
1772930848553.9417,0.0362,-0.5729,-0.7981
1772930848553.9417,0.0364,-0.5741,-0.8007
1772930848553.9417,0.0403,-0.5752,-0.8014
1772930848553.9417,0.0403,-0.5752,-0.7983
1772930848553.9417,0.0396,-0.5765,-0.7973
1772930848553.9417,0.0395,-0.5769,-0.798
1772930848553.9417,0.0403,-0.5769,-0.8013
1772930848569.7886,0.0409,-0.5774,-0.7979
1772930848569.7886,0.0383,-0.5765,-0.8009
1772930848569.7886,0.0384,-0.5766,-0.8025
1772930848569.7886,0.0396,-0.5796,-0.8004
1772930848569.7886,0.0373,-0.5771,-0.8006
1772930848569.7886,0.0361,-0.5749,-0.7992
1772930848569.7886,0.0362,-0.5761,-0.8014
1772930848569.7886,0.0369,-0.5741,-0.802
1772930848585.596,0.0358,-0.5752,-0.8014
1772930848585.596,0.036,-0.5752,-0.8023
1772930848585.596,0.0367,-0.5745,-0.8025
1772930848585.596,0.0351,-0.5741,-0.8013
1772930848585.596,0.0357,-0.5754,-0.8014
1772930848585.596,0.0353,-0.5762,-0.7984
1772930848585.596,0.0346,-0.5769,-0.7979
1772930848585.596,0.036,-0.5763,-0.7976
1772930848600.7642,0.0365,-0.5783,-0.7964
1772930848600.7642,0.0331,-0.5779,-0.7956
1772930848600.7642,0.0336,-0.5771,-0.7956
1772930848600.7642,0.0351,-0.5739,-0.7929
1772930848600.7642,0.0337,-0.5754,-0.7906
1772930848600.7642,0.0336,-0.5711,-0.7901
1772930848600.7642,0.031,-0.57,-0.7893
1772930848600.7642,0.0337,-0.5686,-0.7873
1772930848615.9138,0.0328,-0.5694,-0.789
1772930848615.9138,0.03,-0.5689,-0.7851
1772930848615.9138,0.0306,-0.5693,-0.7865
1772930848615.9138,0.0284,-0.5699,-0.7879
1772930848615.9138,0.0284,-0.5733,-0.7889
1772930848631.036,0.0264,-0.5727,-0.7889
1772930848631.036,0.0289,-0.5734,-0.7896
1772930848631.036,0.0281,-0.5727,-0.7872
1772930848631.036,0.0282,-0.5731,-0.7844
1772930848631.036,0.0307,-0.5742,-0.7881
1772930848631.036,0.0265,-0.572,-0.7892
1772930848631.036,0.0335,-0.5728,-0.7881
1772930848631.036,0.0312,-0.571,-0.7876
1772930848646.1475,0.0343,-0.5686,-0.7834
1772930848646.1475,0.035,-0.5708,-0.7873
1772930848646.1475,0.0329,-0.5689,-0.7879
1772930848646.1475,0.033,-0.5696,-0.7853
1772930848646.1475,0.0326,-0.5649,-0.7885
1772930848646.1475,0.0332,-0.5668,-0.7859
1772930848646.1475,0.039,-0.5695,-0.7879
1772930848646.1475,0.0401,-0.5752,-0.7857
1772930848661.3213,0.0362,-0.5743,-0.7841
1772930848661.3213,0.0329,-0.5732,-0.7879
1772930848661.3213,0.0334,-0.5671,-0.7915
1772930848661.3213,0.0368,-0.5646,-0.7871
1772930848661.3213,0.0359,-0.5663,-0.7878
1772930848677.2292,0.034,-0.5647,-0.7871
1772930848677.2292,0.0346,-0.5617,-0.7858
1772930848677.2292,0.0343,-0.5662,-0.7884
1772930848677.2292,0.0315,-0.5667,-0.7885
1772930848677.2292,0.0325,-0.5646,-0.7869
1772930848677.2292,0.0342,-0.5662,-0.7892
1772930848677.2292,0.0344,-0.566,-0.7884
1772930848677.2292,0.0334,-0.5675,-0.7888
1772930848693.1484,0.0343,-0.567,-0.7875
1772930848693.1484,0.0341,-0.5679,-0.7914
1772930848693.1484,0.0327,-0.5672,-0.792
1772930848693.1484,0.0335,-0.5652,-0.79
1772930848693.1484,0.0291,-0.5658,-0.7915
1772930848693.1484,0.03,-0.566,-0.787
1772930848693.1484,0.0294,-0.5678,-0.7909
1772930848693.1484,0.0295,-0.5677,-0.7912
1772930848708.3972,0.0293,-0.5678,-0.7897
1772930848708.3972,0.0259,-0.5664,-0.7923
1772930848708.3972,0.0253,-0.5672,-0.7925
1772930848708.3972,0.026,-0.5688,-0.7935
1772930848708.3972,0.0249,-0.5679,-0.7915
1772930848708.3972,0.0262,-0.5688,-0.7957
1772930848708.3972,0.027,-0.5687,-0.794
1772930848708.3972,0.0291,-0.5705,-0.7944
1772930848724.022,0.0274,-0.5688,-0.795
1772930848724.022,0.0265,-0.5677,-0.796
1772930848724.022,0.0273,-0.5702,-0.7942
1772930848724.022,0.0309,-0.5686,-0.8116
1772930848724.022,0.0299,-0.5687,-0.7964
1772930848724.022,0.0292,-0.5697,-0.7943
1772930848724.022,0.0304,-0.5691,-0.7977
1772930848724.022,0.0308,-0.5692,-0.7947
1772930848740.1128,0.0312,-0.5692,-0.7928
1772930848740.1128,0.0304,-0.5701,-0.7982
1772930848740.1128,0.0312,-0.5719,-0.7975
1772930848740.1128,0.0291,-0.5717,-0.7971
1772930848740.1128,0.029,-0.5694,-0.799
1772930848740.1128,0.0284,-0.5699,-0.7995
1772930848740.1128,0.0282,-0.5687,-0.8006
1772930848740.1128,0.0317,-0.5677,-0.8016
1772930848755.3223,0.0308,-0.5703,-0.8005
1772930848755.3223,0.0313,-0.568,-0.801
1772930848755.3223,0.0343,-0.566,-0.8041
1772930848755.3223,0.033,-0.5655,-0.8049
1772930848755.3223,0.0334,-0.5699,-0.801
1772930848755.3223,0.0306,-0.57,-0.8014
1772930848770.4045,0.0314,-0.5685,-0.8043
1772930848770.4045,0.032,-0.5693,-0.8043
1772930848770.4045,0.0309,-0.5701,-0.8079
1772930848770.4045,0.0327,-0.573,-0.8079
1772930848770.4045,0.0321,-0.5714,-0.8043
1772930848770.4045,0.0354,-0.5727,-0.8061
1772930848770.4045,0.0357,-0.5727,-0.8049
1772930848770.4045,0.0342,-0.5732,-0.8036
1772930848786.3726,0.0319,-0.5735,-0.7999
1772930848786.3726,0.0354,-0.5751,-0.7927
1772930848786.3726,0.0365,-0.5738,-0.7924
1772930848786.3726,0.0337,-0.5733,-0.7892
1772930848786.3726,0.0339,-0.5716,-0.79
1772930848786.3726,0.0339,-0.5688,-0.7923
1772930848786.3726,0.0303,-0.5693,-0.7908
1772930848786.3726,0.0286,-0.5691,-0.7939
1772930848801.9658,0.0301,-0.5677,-0.796
1772930848801.9658,0.0273,-0.571,-0.7942
1772930848801.9658,0.0268,-0.5682,-0.7971
1772930848801.9658,0.0261,-0.57,-0.8014
1772930848801.9658,0.0247,-0.5675,-0.8017
1772930848801.9658,0.0246,-0.5676,-0.8078
1772930848801.9658,0.0263,-0.5664,-0.8083
1772930848801.9658,0.0231,-0.5675,-0.8131
1772930848817.5608,0.0256,-0.5688,-0.8123
1772930848817.5608,0.0259,-0.5686,-0.8133
1772930848817.5608,0.028,-0.5688,-0.814
1772930848817.5608,0.0297,-0.5701,-0.8101
1772930848817.5608,0.0308,-0.5686,-0.8065
1772930848817.5608,0.0372,-0.5652,-0.8039
1772930848817.5608,0.0358,-0.5657,-0.8
1772930848817.5608,0.0337,-0.5591,-0.8015
1772930848833.169,0.0323,-0.5539,-0.8022
1772930848833.169,0.0317,-0.5534,-0.8021
1772930848833.169,0.0268,-0.554,-0.8042
1772930848833.169,0.0273,-0.556,-0.8026
1772930848833.169,0.0287,-0.5572,-0.7987
1772930848848.4531,0.0276,-0.562,-0.7995
1772930848848.4531,0.0294,-0.563,-0.7944
1772930848848.4531,0.0317,-0.5639,-0.7929
1772930848848.4531,0.0335,-0.5657,-0.7896
1772930848848.4531,0.0314,-0.5672,-0.786
1772930848848.4531,0.0296,-0.5674,-0.7877
1772930848848.4531,0.0257,-0.5691,-0.7863
1772930848848.4531,0.0266,-0.5699,-0.7843
1772930848863.8457,0.0264,-0.573,-0.7843
1772930848863.8457,0.0195,-0.5766,-0.7834
1772930848863.8457,0.0195,-0.5786,-0.7839
1772930848863.8457,0.0181,-0.5781,-0.7808
1772930848863.8457,0.0189,-0.5821,-0.7814
1772930848863.8457,0.0154,-0.5799,-0.7813
1772930848863.8457,0.0148,-0.5805,-0.7802
1772930848863.8457,0.0162,-0.5777,-0.7849
1772930848879.2163,0.0134,-0.5786,-0.7844
1772930848879.2163,0.0117,-0.5788,-0.7849
1772930848879.2163,0.0101,-0.5804,-0.7866
1772930848879.2163,0.0112,-0.5797,-0.7913
1772930848879.2163,0.0056,-0.5793,-0.798
1772930848879.2163,0.0054,-0.5827,-0.801
1772930848879.2163,0.0083,-0.5796,-0.8039
1772930848879.2163,0.0059,-0.5768,-0.8097
1772930848894.1885,0.0107,-0.5771,-0.8141
1772930848894.1885,0.0097,-0.5766,-0.8198
1772930848894.1885,0.0118,-0.5752,-0.8224
1772930848894.1885,0.0144,-0.5749,-0.8235
1772930848894.1885,0.0167,-0.5741,-0.8234
1772930848909.9915,0.0193,-0.5771,-0.8228
1772930848909.9915,0.0235,-0.5775,-0.8186
1772930848909.9915,0.0248,-0.5774,-0.8164
1772930848909.9915,0.0304,-0.5782,-0.8145
1772930848909.9915,0.0335,-0.5786,-0.8096
1772930848909.9915,0.0372,-0.5786,-0.8079
1772930848909.9915,0.0396,-0.5785,-0.801
1772930848909.9915,0.0401,-0.5771,-0.7956
1772930848925.919,0.043,-0.5779,-0.792
1772930848925.919,0.0453,-0.5774,-0.7925
1772930848925.919,0.0452,-0.5748,-0.792
1772930848925.919,0.0464,-0.5767,-0.7936
1772930848925.919,0.0471,-0.5749,-0.7899
1772930848925.919,0.0477,-0.5741,-0.7896
1772930848925.919,0.0455,-0.5733,-0.7879
1772930848925.919,0.0454,-0.5724,-0.7891
1772930848941.15,0.0451,-0.5705,-0.7942
1772930848941.15,0.0447,-0.5727,-0.7895
1772930848941.15,0.0383,-0.5729,-0.7862
1772930848941.15,0.0411,-0.5813,-0.7859
1772930848941.15,0.0434,-0.5739,-0.792
1772930848941.15,0.0428,-0.5675,-0.7893
1772930848941.15,0.0351,-0.57,-0.7858
1772930848941.15,0.0269,-0.5732,-0.7851
1772930848956.7383,0.0228,-0.5757,-0.7806
1772930848956.7383,0.0237,-0.5757,-0.778
1772930848956.7383,0.026,-0.5753,-0.7768
1772930848956.7383,0.0312,-0.571,-0.7743
1772930848956.7383,0.0329,-0.569,-0.7763
1772930848956.7383,0.0386,-0.5688,-0.7746
1772930848956.7383,0.0337,-0.5655,-0.7725
1772930848956.7383,0.0342,-0.564,-0.7733
1772930848971.5396,0.0287,-0.564,-0.7765
1772930848971.5396,0.0249,-0.5632,-0.7765
1772930848971.5396,0.0224,-0.5594,-0.7756
1772930848971.5396,0.019,-0.5586,-0.7786
1772930848971.5396,0.0167,-0.558,-0.7785
1772930848971.5396,0.0173,-0.5582,-0.7793
1772930848987.631,0.015,-0.5596,-0.7811
1772930848987.631,0.0154,-0.5617,-0.7792
1772930848987.631,0.0174,-0.5625,-0.7848
1772930848987.631,0.0174,-0.5636,-0.7824
1772930848987.631,0.0182,-0.5656,-0.7873
1772930848987.631,0.02,-0.5667,-0.7873
1772930848987.631,0.0179,-0.566,-0.7912
1772930848987.631,0.0192,-0.565,-0.7899
1772930849003.5422,0.022,-0.5624,-0.7931
1772930849003.5422,0.0226,-0.5618,-0.792
1772930849003.5422,0.0266,-0.5588,-0.7964
1772930849003.5422,0.0236,-0.5609,-0.7936
1772930849003.5422,0.0216,-0.5645,-0.7935
1772930849003.5422,0.0231,-0.5645,-0.7931
1772930849003.5422,0.0247,-0.5672,-0.7916
1772930849003.5422,0.0254,-0.5667,-0.7926
1772930849019.691,0.0277,-0.5666,-0.7924
1772930849019.691,0.0327,-0.5674,-0.7932
1772930849019.691,0.0309,-0.5682,-0.7965
1772930849019.691,0.0308,-0.5674,-0.7989
1772930849019.691,0.0335,-0.5643,-0.7984
1772930849019.691,0.0318,-0.5752,-0.8031
1772930849019.691,0.0295,-0.5682,-0.8023
1772930849019.691,0.0283,-0.5688,-0.798
1772930849035.2827,0.0259,-0.5679,-0.799
1772930849035.2827,0.0301,-0.57,-0.8018
1772930849035.2827,0.0311,-0.5672,-0.8031
1772930849035.2827,0.0303,-0.5667,-0.8025
1772930849035.2827,0.0308,-0.566,-0.8015
1772930849035.2827,0.0322,-0.5705,-0.8028
1772930849035.2827,0.032,-0.5731,-0.8009
1772930849035.2827,0.0339,-0.5708,-0.799
1772930849050.884,0.032,-0.5748,-0.8006
1772930849050.884,0.0333,-0.5724,-0.8001
1772930849050.884,0.0312,-0.5746,-0.8062
1772930849050.884,0.0295,-0.5742,-0.8049
1772930849050.884,0.029,-0.5776,-0.8056
1772930849050.884,0.0299,-0.5775,-0.804
1772930849050.884,0.0292,-0.5779,-0.8086
1772930849050.884,0.0283,-0.5798,-0.8039
1772930849066.471,0.0279,-0.5789,-0.8029
1772930849066.471,0.024,-0.5768,-0.8101
1772930849066.471,0.0223,-0.5734,-0.8029
1772930849066.471,0.0243,-0.5799,-0.8129
1772930849066.471,0.0206,-0.5742,-0.8122
1772930849082.0647,0.019,-0.5713,-0.8106
1772930849082.0647,0.0193,-0.5711,-0.809
1772930849082.0647,0.0218,-0.5668,-0.8086
1772930849082.0647,0.0212,-0.5694,-0.809
1772930849082.0647,0.0251,-0.5674,-0.8053
1772930849082.0647,0.0264,-0.5714,-0.8001
1772930849082.0647,0.0256,-0.5718,-0.7951
1772930849082.0647,0.0318,-0.5743,-0.7931
1772930849097.1755,0.0314,-0.5765,-0.7898
1772930849097.1755,0.0325,-0.5763,-0.7909
1772930849097.1755,0.0312,-0.5746,-0.7924
1772930849097.1755,0.0328,-0.5721,-0.7935
1772930849097.1755,0.0346,-0.5717,-0.7926
1772930849097.1755,0.0303,-0.571,-0.7917
1772930849097.1755,0.0256,-0.5727,-0.7928
1772930849097.1755,0.0231,-0.5733,-0.7924
1772930849112.7402,0.0204,-0.5741,-0.7904
1772930849112.7402,0.0212,-0.5763,-0.7909
1772930849112.7402,0.0208,-0.5756,-0.7985
1772930849112.7402,0.0179,-0.5749,-0.7967
1772930849112.7402,0.0206,-0.5728,-0.7976
1772930849112.7402,0.0231,-0.5722,-0.7984
1772930849112.7402,0.0231,-0.5723,-0.8019
1772930849112.7402,0.0222,-0.5676,-0.8018
1772930849128.3242,0.0228,-0.5691,-0.8031
1772930849128.3242,0.0237,-0.5699,-0.8074
1772930849128.3242,0.0234,-0.5674,-0.8057
1772930849128.3242,0.0261,-0.5671,-0.8061
1772930849128.3242,0.026,-0.5653,-0.8069
1772930849143.4185,0.0269,-0.5628,-0.8048
1772930849143.4185,0.0303,-0.5619,-0.8038
1772930849143.4185,0.0308,-0.5593,-0.8045
1772930849143.4185,0.0304,-0.5586,-0.8011
1772930849143.4185,0.0318,-0.5579,-0.8003
1772930849143.4185,0.0345,-0.5589,-0.8001
1772930849143.4185,0.0339,-0.5572,-0.7989
1772930849143.4185,0.0338,-0.559,-0.7955
1772930849159.0088,0.0319,-0.5579,-0.794
1772930849159.0088,0.0301,-0.5578,-0.7986
1772930849159.0088,0.0329,-0.5602,-0.797
1772930849159.0088,0.0324,-0.5583,-0.7968
1772930849159.0088,0.0325,-0.5623,-0.7989
1772930849159.0088,0.0319,-0.5602,-0.7989
1772930849159.0088,0.0312,-0.5647,-0.7982
1772930849159.0088,0.0317,-0.5636,-0.7999
1772930849174.175,0.0343,-0.5646,-0.8013
1772930849174.175,0.0332,-0.5625,-0.8004
1772930849174.175,0.0322,-0.5661,-0.7989
1772930849174.175,0.0318,-0.5649,-0.8
1772930849174.175,0.0312,-0.5679,-0.8001
1772930849174.175,0.0315,-0.5688,-0.8009
1772930849174.175,0.0332,-0.571,-0.8001
1772930849174.175,0.0292,-0.5706,-0.7986
1772930849189.7585,0.0305,-0.5704,-0.8029
1772930849189.7585,0.0309,-0.5677,-0.7996
1772930849189.7585,0.0317,-0.5671,-0.7985
1772930849189.7585,0.0293,-0.5678,-0.7996
1772930849189.7585,0.0329,-0.5672,-0.8014
1772930849189.7585,0.0296,-0.5663,-0.7981
1772930849189.7585,0.0309,-0.5639,-0.7997
1772930849189.7585,0.0313,-0.5639,-0.8004
1772930849205.838,0.0303,-0.5641,-0.7968
1772930849205.838,0.0308,-0.567,-0.7969
1772930849205.838,0.0315,-0.5646,-0.7961
1772930849205.838,0.0307,-0.5638,-0.7954
1772930849205.838,0.0333,-0.5643,-0.7977
1772930849205.838,0.0351,-0.5627,-0.7982
1772930849221.4326,0.0306,-0.5657,-0.7967
1772930849221.4326,0.0334,-0.5647,-0.8003
1772930849221.4326,0.0337,-0.5636,-0.7964
1772930849221.4326,0.0343,-0.566,-0.8013
1772930849221.4326,0.0331,-0.563,-0.7987
1772930849221.4326,0.0307,-0.5649,-0.8028
1772930849221.4326,0.0301,-0.5655,-0.7985
1772930849221.4326,0.0301,-0.5632,-0.7997
1772930849236.4968,0.029,-0.5651,-0.799
1772930849236.4968,0.0263,-0.5647,-0.8002
1772930849236.4968,0.0304,-0.5654,-0.7986
1772930849236.4968,0.0277,-0.5644,-0.7996
1772930849236.4968,0.0269,-0.5649,-0.8016
1772930849236.4968,0.0263,-0.5658,-0.7998
1772930849236.4968,0.0265,-0.5655,-0.7994
1772930849236.4968,0.0265,-0.5657,-0.8007
1772930849252.0479,0.0245,-0.5654,-0.8019
1772930849252.0479,0.0243,-0.568,-0.8037
1772930849252.0479,0.0257,-0.5656,-0.8009
1772930849252.0479,0.0253,-0.5644,-0.8002
1772930849252.0479,0.0266,-0.5653,-0.7993
1772930849252.0479,0.0287,-0.5658,-0.7992
1772930849252.0479,0.0259,-0.5643,-0.7984
1772930849252.0479,0.0282,-0.5643,-0.7973
1772930849268.0579,0.0261,-0.5591,-0.7957
1772930849268.0579,0.029,-0.565,-0.8098
1772930849268.0579,0.0319,-0.567,-0.7996
1772930849268.0579,0.0312,-0.5638,-0.7973
1772930849268.0579,0.0282,-0.5642,-0.8008
1772930849268.0579,0.0218,-0.5648,-0.7975
1772930849268.0579,0.0212,-0.5633,-0.7944
1772930849268.0579,0.0274,-0.563,-0.7945
1772930849284.0503,0.0279,-0.5636,-0.7943
1772930849284.0503,0.0262,-0.5633,-0.7956
1772930849284.0503,0.0252,-0.5674,-0.7971
1772930849284.0503,0.0267,-0.5676,-0.7967
1772930849284.0503,0.0239,-0.5712,-0.7965
1772930849284.0503,0.0259,-0.5677,-0.7985
1772930849284.0503,0.0248,-0.5682,-0.7956
1772930849284.0503,0.0225,-0.5686,-0.7986
1772930849299.3425,0.0247,-0.5683,-0.7988
1772930849299.3425,0.0246,-0.5694,-0.8004
1772930849299.3425,0.0247,-0.5677,-0.8009
1772930849299.3425,0.0234,-0.5675,-0.8031
1772930849299.3425,0.026,-0.5704,-0.8031
1772930849314.7905,0.0243,-0.5677,-0.8014
1772930849314.7905,0.0257,-0.5687,-0.803
1772930849314.7905,0.0258,-0.5676,-0.8041
1772930849314.7905,0.0243,-0.5674,-0.8034
1772930849314.7905,0.0257,-0.5669,-0.8041
1772930849314.7905,0.0278,-0.5677,-0.8036
1772930849314.7905,0.0276,-0.5679,-0.8037
1772930849314.7905,0.0264,-0.5675,-0.8054
1772930849329.9602,0.0271,-0.5677,-0.8041
1772930849329.9602,0.0282,-0.5674,-0.8033
1772930849329.9602,0.0249,-0.5684,-0.8037
1772930849329.9602,0.0262,-0.5675,-0.8047
1772930849329.9602,0.0248,-0.563,-0.8042
1772930849329.9602,0.0241,-0.5677,-0.8064
1772930849329.9602,0.0235,-0.5644,-0.8034
1772930849329.9602,0.0251,-0.5658,-0.8028
1772930849345.0022,0.026,-0.5665,-0.8031
1772930849345.0022,0.0242,-0.5673,-0.8043
1772930849345.0022,0.025,-0.5663,-0.8047
1772930849345.0022,0.0236,-0.5678,-0.7992
1772930849345.0022,0.0232,-0.5681,-0.8009
1772930849360.8354,0.021,-0.568,-0.803
1772930849360.8354,0.0199,-0.5689,-0.7982
1772930849360.8354,0.0205,-0.5701,-0.8012
1772930849360.8354,0.0215,-0.5686,-0.7997
1772930849360.8354,0.0221,-0.5679,-0.7999
1772930849360.8354,0.0246,-0.5654,-0.8002
1772930849360.8354,0.0237,-0.5653,-0.7984
1772930849360.8354,0.0229,-0.564,-0.7989
1772930849376.3992,0.0238,-0.5658,-0.7965
1772930849376.3992,0.0201,-0.5659,-0.7953
1772930849376.3992,0.02,-0.5646,-0.7946
1772930849376.3992,0.0216,-0.5647,-0.7987
1772930849376.3992,0.0204,-0.565,-0.7968
1772930849376.3992,0.0233,-0.5663,-0.7995
1772930849376.3992,0.0218,-0.5671,-0.7974
1772930849376.3992,0.0221,-0.5647,-0.8001
1772930849392.3342,0.0234,-0.5669,-0.7978
1772930849392.3342,0.0245,-0.5652,-0.7984
1772930849392.3342,0.0251,-0.5647,-0.7993
1772930849392.3342,0.0243,-0.563,-0.7954
1772930849392.3342,0.0238,-0.5625,-0.8117
1772930849392.3342,0.0237,-0.5625,-0.7993
1772930849392.3342,0.0228,-0.5612,-0.7973
1772930849392.3342,0.025,-0.5625,-0.7979
1772930849407.8628,0.0244,-0.5627,-0.799
1772930849407.8628,0.0245,-0.5611,-0.7985
1772930849407.8628,0.0253,-0.5608,-0.796
1772930849407.8628,0.0226,-0.5602,-0.7986
1772930849407.8628,0.0251,-0.5592,-0.7985
1772930849407.8628,0.025,-0.5601,-0.8018
1772930849407.8628,0.0239,-0.5627,-0.7986
1772930849407.8628,0.0243,-0.5613,-0.7973
1772930849423.2673,0.0265,-0.5595,-0.8009
1772930849423.2673,0.0236,-0.5613,-0.797
1772930849423.2673,0.0248,-0.5592,-0.7992
1772930849423.2673,0.0219,-0.5596,-0.7973
1772930849423.2673,0.0209,-0.5615,-0.7998
1772930849423.2673,0.0231,-0.5599,-0.8003
1772930849423.2673,0.0231,-0.5599,-0.7989
1772930849423.2673,0.0237,-0.5597,-0.8018
1772930849438.5447,0.0228,-0.5594,-0.8015
1772930849438.5447,0.0204,-0.5605,-0.8019
1772930849438.5447,0.0224,-0.5592,-0.8006
1772930849438.5447,0.0218,-0.5595,-0.8026
1772930849438.5447,0.0214,-0.5625,-0.8022
1772930849438.5447,0.023,-0.5613,-0.7999
1772930849453.686,0.0207,-0.5603,-0.7954
1772930849453.686,0.021,-0.5641,-0.8011
1772930849453.686,0.0204,-0.561,-0.8038
1772930849453.686,0.018,-0.5603,-0.8033
1772930849453.686,0.0232,-0.5624,-0.7989
1772930849453.686,0.0201,-0.5613,-0.8009
1772930849453.686,0.0188,-0.5625,-0.8017
1772930849453.686,0.0196,-0.5636,-0.7986
1772930849469.0464,0.0201,-0.561,-0.7989
1772930849469.0464,0.0189,-0.559,-0.8003
1772930849469.0464,0.0198,-0.56,-0.802
1772930849469.0464,0.0173,-0.5627,-0.8026
1772930849469.0464,0.0204,-0.5631,-0.8018
1772930849469.0464,0.0204,-0.5651,-0.8012
1772930849469.0464,0.0228,-0.5653,-0.8008
1772930849469.0464,0.0207,-0.5635,-0.8032
1772930849484.6665,0.0237,-0.5654,-0.8023
1772930849484.6665,0.0172,-0.5715,-0.7893
1772930849484.6665,0.0259,-0.5641,-0.8084
1772930849484.6665,0.0297,-0.5617,-0.804
1772930849484.6665,0.0234,-0.5634,-0.8025
1772930849484.6665,0.0213,-0.5643,-0.804
1772930849484.6665,0.0242,-0.5662,-0.8054
1772930849484.6665,0.0215,-0.5664,-0.8037
1772930849500.7903,0.0221,-0.5661,-0.8076
1772930849500.7903,0.0217,-0.5644,-0.8028
1772930849500.7903,0.0221,-0.565,-0.8073
1772930849500.7903,0.0212,-0.5649,-0.808
1772930849500.7903,0.0228,-0.5653,-0.8051
1772930849500.7903,0.0214,-0.5651,-0.8036
1772930849500.7903,0.0234,-0.5646,-0.8069
1772930849500.7903,0.0245,-0.5641,-0.8035
1772930849515.8958,0.024,-0.5647,-0.803
1772930849515.8958,0.022,-0.5636,-0.8026
1772930849515.8958,0.024,-0.5634,-0.8042
1772930849515.8958,0.0239,-0.563,-0.805
1772930849515.8958,0.0237,-0.5646,-0.8013
1772930849531.165,0.0225,-0.5647,-0.8029
1772930849531.165,0.0255,-0.5614,-0.8026
1772930849531.165,0.0241,-0.5609,-0.8051
1772930849531.165,0.0226,-0.5613,-0.8013
1772930849531.165,0.0262,-0.5609,-0.8023
1772930849531.165,0.0251,-0.5612,-0.7995
1772930849531.165,0.0242,-0.5624,-0.8013
1772930849531.165,0.0239,-0.5637,-0.7997
1772930849546.3042,0.0232,-0.5628,-0.8
1772930849546.3042,0.0239,-0.5603,-0.7969
1772930849546.3042,0.025,-0.5632,-0.7996
1772930849546.3042,0.0243,-0.5609,-0.799
1772930849546.3042,0.0228,-0.5622,-0.7975
1772930849546.3042,0.021,-0.5632,-0.7968
1772930849546.3042,0.0223,-0.563,-0.7954
1772930849546.3042,0.0192,-0.5642,-0.7979
1772930849561.8364,0.0223,-0.5662,-0.7947
1772930849561.8364,0.0205,-0.5638,-0.7967
1772930849561.8364,0.0208,-0.5646,-0.7946
1772930849561.8364,0.0185,-0.5658,-0.7965
1772930849561.8364,0.0193,-0.5633,-0.7974
1772930849561.8364,0.0206,-0.5647,-0.7979
1772930849561.8364,0.0182,-0.5653,-0.7982
1772930849561.8364,0.0221,-0.568,-0.7959
1772930849576.9744,0.0224,-0.5662,-0.7953
1772930849576.9744,0.0213,-0.5676,-0.7971
1772930849576.9744,0.0185,-0.5649,-0.7957
1772930849576.9744,0.0206,-0.5653,-0.7984
1772930849576.9744,0.0212,-0.5659,-0.7985
1772930849592.1523,0.0201,-0.5637,-0.7998
1772930849592.1523,0.019,-0.5635,-0.7978
1772930849592.1523,0.021,-0.5632,-0.8001
1772930849592.1523,0.0209,-0.5647,-0.7987
1772930849592.1523,0.0184,-0.5649,-0.8029
1772930849592.1523,0.0217,-0.5635,-0.8004
1772930849592.1523,0.0235,-0.5645,-0.8025
1772930849592.1523,0.0317,-0.5561,-0.8018
1772930849608.0586,0.031,-0.5582,-0.798
1772930849608.0586,0.0213,-0.5718,-0.8077
1772930849608.0586,0.0201,-0.5603,-0.8044
1772930849608.0586,0.0191,-0.5596,-0.8042
1772930849608.0586,0.0235,-0.5583,-0.81
1772930849608.0586,0.0256,-0.5596,-0.8103
1772930849608.0586,0.0283,-0.556,-0.81
1772930849608.0586,0.0288,-0.5564,-0.8051
1772930849623.1743,0.0273,-0.5544,-0.8039
1772930849623.1743,0.0467,-0.5543,-0.8017
1772930849623.1743,0.0329,-0.5566,-0.8058
1772930849623.1743,0.0334,-0.5588,-0.8015
1772930849623.1743,0.0321,-0.5614,-0.7998
1772930849623.1743,0.0338,-0.5614,-0.7987
1772930849623.1743,0.0291,-0.5649,-0.7936
1772930849623.1743,0.0279,-0.5656,-0.7901
1772930849638.7869,0.0274,-0.5683,-0.7865
1772930849638.7869,0.0281,-0.5673,-0.7832
1772930849638.7869,0.0255,-0.5692,-0.7869
1772930849638.7869,0.0231,-0.5673,-0.7901
1772930849638.7869,0.0159,-0.5599,-0.7912
1772930849638.7869,0.0186,-0.5527,-0.7957
1772930849654.6606,0.0149,-0.5554,-0.7993
1772930849654.6606,0.0193,-0.5531,-0.805
1772930849654.6606,0.0178,-0.5571,-0.8064
1772930849654.6606,0.0158,-0.5615,-0.8025
1772930849654.6606,0.0141,-0.5616,-0.8067
1772930849654.6606,0.0135,-0.564,-0.8064
1772930849654.6606,0.0201,-0.5638,-0.8074
1772930849654.6606,0.02,-0.5656,-0.8106
1772930849670.1108,0.0243,-0.5682,-0.8108
1772930849670.1108,0.0297,-0.5675,-0.812
1772930849670.1108,0.0344,-0.5691,-0.809
1772930849670.1108,0.0362,-0.565,-0.8033
1772930849670.1108,0.0387,-0.5617,-0.803
1772930849670.1108,0.038,-0.5594,-0.8022
1772930849670.1108,0.0401,-0.5508,-0.7974
1772930849670.1108,0.0321,-0.545,-0.8001
1772930849685.5618,0.0316,-0.5439,-0.8009
1772930849685.5618,0.0304,-0.5439,-0.8066
1772930849685.5618,0.0294,-0.5452,-0.7994
1772930849685.5618,0.032,-0.5501,-0.8011
1772930849685.5618,0.0302,-0.5528,-0.7975
1772930849685.5618,0.031,-0.5586,-0.7929
1772930849685.5618,0.0309,-0.5626,-0.7901
1772930849685.5618,0.0311,-0.5629,-0.7895
1772930849700.8933,0.0296,-0.5624,-0.7885
1772930849700.8933,0.0285,-0.565,-0.7908
1772930849700.8933,0.0284,-0.5656,-0.7903
1772930849700.8933,0.0264,-0.5712,-0.792
1772930849700.8933,0.0228,-0.5723,-0.7899
1772930849700.8933,0.0218,-0.5738,-0.786
1772930849700.8933,0.0204,-0.5724,-0.7879
1772930849700.8933,0.0181,-0.5722,-0.7889
1772930849716.123,0.017,-0.5716,-0.7878
1772930849716.123,0.0129,-0.5714,-0.7877
1772930849716.123,0.0134,-0.5701,-0.789
1772930849716.123,0.0102,-0.5703,-0.789
1772930849716.123,0.0123,-0.568,-0.7909
1772930849731.7173,0.0101,-0.5693,-0.7934
1772930849731.7173,0.013,-0.5694,-0.7966
1772930849731.7173,0.0128,-0.5687,-0.7999
1772930849731.7173,0.0117,-0.569,-0.8026
1772930849731.7173,0.0106,-0.566,-0.8106
1772930849731.7173,0.0113,-0.5697,-0.8117
1772930849731.7173,0.0131,-0.5666,-0.8164
1772930849731.7173,0.0116,-0.5662,-0.8208
1772930849747.4324,0.0131,-0.5668,-0.8251
1772930849747.4324,0.0137,-0.5645,-0.8279
1772930849747.4324,0.0171,-0.5663,-0.8297
1772930849747.4324,0.0174,-0.5643,-0.8306
1772930849747.4324,0.0217,-0.5644,-0.8337
1772930849747.4324,0.0248,-0.5616,-0.8302
1772930849747.4324,0.029,-0.5605,-0.8249
1772930849747.4324,0.0296,-0.5603,-0.8254
1772930849762.8315,0.0347,-0.5582,-0.819
1772930849762.8315,0.0359,-0.5578,-0.8154
1772930849762.8315,0.0386,-0.556,-0.8164
1772930849762.8315,0.0368,-0.5553,-0.8097
1772930849762.8315,0.0399,-0.5539,-0.809
1772930849762.8315,0.0388,-0.553,-0.8067
1772930849762.8315,0.0384,-0.5527,-0.8059
1772930849762.8315,0.0388,-0.5549,-0.8045
1772930849778.3457,0.0379,-0.5563,-0.8076
1772930849778.3457,0.038,-0.5567,-0.8064
1772930849778.3457,0.0369,-0.5601,-0.8022
1772930849778.3457,0.0328,-0.5641,-0.8045
1772930849778.3457,0.0337,-0.5654,-0.805
1772930849793.4902,0.0334,-0.566,-0.8023
1772930849793.4902,0.0278,-0.5673,-0.7989
1772930849793.4902,0.0301,-0.5677,-0.7996
1772930849793.4902,0.0285,-0.5699,-0.8008
1772930849793.4902,0.0261,-0.5682,-0.7982
1772930849793.4902,0.0235,-0.5728,-0.8012
1772930849793.4902,0.0231,-0.5725,-0.7974
1772930849793.4902,0.0212,-0.5721,-0.7952
1772930849809.0352,0.0199,-0.5739,-0.7923
1772930849809.0352,0.0187,-0.573,-0.7968
1772930849809.0352,0.0196,-0.5725,-0.7936
1772930849809.0352,0.0215,-0.5705,-0.7907
1772930849809.0352,0.0208,-0.5703,-0.7889
1772930849809.0352,0.0183,-0.5675,-0.7926
1772930849809.0352,0.0188,-0.565,-0.7897
1772930849809.0352,0.0178,-0.5642,-0.7901
1772930849825.147,0.0162,-0.5641,-0.7909
1772930849825.147,0.0162,-0.5629,-0.7924
1772930849825.147,0.0154,-0.5609,-0.7928
1772930849825.147,0.0135,-0.5616,-0.792
1772930849825.147,0.0141,-0.5611,-0.7915
1772930849825.147,0.0151,-0.5612,-0.7931
1772930849825.147,0.0152,-0.561,-0.7931
1772930849825.147,0.0162,-0.5597,-0.7937
1772930849841.622,0.0177,-0.5583,-0.7963
1772930849841.622,0.018,-0.5564,-0.7962
1772930849841.622,0.0177,-0.5573,-0.7948
1772930849841.622,0.0179,-0.5563,-0.7967
1772930849841.622,0.0161,-0.5558,-0.7986
1772930849841.622,0.0219,-0.5568,-0.7945
1772930849841.622,0.02,-0.5584,-0.7987
1772930849841.622,0.0197,-0.554,-0.7982
1772930849857.009,0.0213,-0.5549,-0.7959
1772930849857.009,0.0213,-0.554,-0.7974
1772930849857.009,0.0248,-0.5533,-0.7962
1772930849857.009,0.0264,-0.5539,-0.7969
1772930849857.009,0.0255,-0.5507,-0.797
1772930849857.009,0.0269,-0.5527,-0.7967
1772930849857.009,0.0287,-0.5523,-0.7964
1772930849857.009,0.0282,-0.5522,-0.7971
1772930849873.1135,0.0282,-0.5536,-0.7949
1772930849873.1135,0.0295,-0.5547,-0.7986
1772930849873.1135,0.0273,-0.5536,-0.7981
1772930849873.1135,0.0268,-0.5552,-0.7984
1772930849873.1135,0.0251,-0.5555,-0.7978
1772930849873.1135,0.0253,-0.5547,-0.8003
1772930849873.1135,0.0242,-0.5563,-0.8015
1772930849873.1135,0.0238,-0.5572,-0.8009
1772930849888.6694,0.0222,-0.5597,-0.8015
1772930849888.6694,0.021,-0.5586,-0.8024
1772930849888.6694,0.0242,-0.5576,-0.8043
1772930849888.6694,0.0215,-0.5614,-0.8028
1772930849888.6694,0.0191,-0.5613,-0.8007
1772930849888.6694,0.0206,-0.561,-0.8042
1772930849904.5945,0.0197,-0.5641,-0.8045
1772930849904.5945,0.0179,-0.5638,-0.806
1772930849904.5945,0.0205,-0.5658,-0.8057
1772930849904.5945,0.017,-0.5656,-0.8065
1772930849904.5945,0.0146,-0.5691,-0.8065
1772930849904.5945,0.017,-0.5704,-0.809
1772930849904.5945,0.0194,-0.572,-0.8086
1772930849904.5945,0.0215,-0.5726,-0.8084
1772930849919.8013,0.0219,-0.574,-0.8072
1772930849919.8013,0.0214,-0.5711,-0.8076
1772930849919.8013,0.021,-0.57,-0.8106
1772930849919.8013,0.0205,-0.5664,-0.8143
1772930849919.8013,0.0191,-0.5664,-0.8148
1772930849919.8013,0.0218,-0.5661,-0.812
1772930849919.8013,0.0225,-0.5645,-0.8119
1772930849919.8013,0.024,-0.5632,-0.8136
1772930849935.6658,0.0246,-0.5665,-0.8089
1772930849935.6658,0.0262,-0.5678,-0.8068
1772930849935.6658,0.0246,-0.5662,-0.807
1772930849935.6658,0.0264,-0.5672,-0.804
1772930849935.6658,0.028,-0.5704,-0.797
1772930849935.6658,0.0291,-0.5691,-0.797
1772930849935.6658,0.029,-0.5671,-0.7981
1772930849935.6658,0.0267,-0.5648,-0.7962
1772930849951.0142,0.0226,-0.5656,-0.7941
1772930849951.0142,0.0226,-0.567,-0.7925
1772930849951.0142,0.0225,-0.5666,-0.792
1772930849951.0142,0.0227,-0.5673,-0.7928
1772930849951.0142,0.0199,-0.5664,-0.7948
1772930849951.0142,0.0207,-0.5696,-0.7937
1772930849951.0142,0.0201,-0.568,-0.7947
1772930849951.0142,0.0193,-0.5708,-0.7964
1772930849966.8818,0.0198,-0.5674,-0.7984
1772930849966.8818,0.0182,-0.5677,-0.799
1772930849966.8818,0.0192,-0.5678,-0.8034
1772930849966.8818,0.0182,-0.565,-0.8039
1772930849966.8818,0.0194,-0.5655,-0.8087
1772930849982.9949,0.0174,-0.5666,-0.8076
1772930849982.9949,0.0186,-0.563,-0.8086
1772930849982.9949,0.0181,-0.5656,-0.8084
1772930849982.9949,0.0197,-0.5636,-0.8101
1772930849982.9949,0.0167,-0.5636,-0.8117
1772930849982.9949,0.0205,-0.5622,-0.8065
1772930849982.9949,0.0221,-0.5594,-0.8085
1772930849982.9949,0.0216,-0.5598,-0.8086
1772930849998.1323,0.0246,-0.5608,-0.8048
1772930849998.1323,0.0253,-0.5611,-0.8036
1772930849998.1323,0.0236,-0.5591,-0.8039
1772930849998.1323,0.0276,-0.5576,-0.8023
1772930849998.1323,0.0285,-0.5574,-0.7998
1772930849998.1323,0.0289,-0.5586,-0.8004
1772930849998.1323,0.0284,-0.5574,-0.7997
1772930849998.1323,0.0266,-0.5575,-0.7996
1772930850013.908,0.0259,-0.5588,-0.8007
1772930850013.908,0.0272,-0.5589,-0.8004
1772930850013.908,0.026,-0.558,-0.7986
1772930850013.908,0.0234,-0.5589,-0.8026
1772930850013.908,0.025,-0.5599,-0.8022
1772930850013.908,0.0248,-0.5624,-0.8052
1772930850013.908,0.024,-0.5609,-0.8043
1772930850013.908,0.0222,-0.5603,-0.8032
1772930850029.4624,0.0234,-0.5614,-0.803
1772930850029.4624,0.0231,-0.5633,-0.805
1772930850029.4624,0.0232,-0.5601,-0.8038
1772930850029.4624,0.0217,-0.5594,-0.802
1772930850029.4624,0.0224,-0.5602,-0.8013
1772930850029.4624,0.0257,-0.5622,-0.8028
1772930850029.4624,0.0235,-0.5618,-0.8017
1772930850029.4624,0.0231,-0.562,-0.7996
1772930850044.368,0.025,-0.5614,-0.8018
1772930850044.368,0.0246,-0.5619,-0.8007
1772930850044.368,0.0246,-0.5583,-0.8025
1772930850044.368,0.0262,-0.563,-0.7989
1772930850044.368,0.0275,-0.5619,-0.7968
1772930850059.9832,0.0242,-0.5623,-0.7989
1772930850059.9832,0.026,-0.5628,-0.8012
1772930850059.9832,0.0269,-0.5617,-0.7992
1772930850059.9832,0.025,-0.5628,-0.8033
1772930850059.9832,0.0287,-0.5647,-0.8034
1772930850059.9832,0.028,-0.5625,-0.8029
1772930850059.9832,0.0267,-0.5646,-0.8025
1772930850059.9832,0.0277,-0.5644,-0.799
1772930850076.0498,0.0271,-0.5648,-0.7998
1772930850076.0498,0.0268,-0.5634,-0.8022
1772930850076.0498,0.026,-0.5645,-0.8017
1772930850076.0498,0.0228,-0.5632,-0.7992
1772930850076.0498,0.0246,-0.5631,-0.8017
1772930850076.0498,0.0232,-0.5644,-0.8031
1772930850076.0498,0.0232,-0.5644,-0.8014
1772930850076.0498,0.0217,-0.5638,-0.8009
1772930850091.3657,0.0186,-0.5633,-0.8041
1772930850091.3657,0.0206,-0.5663,-0.8031
1772930850091.3657,0.0218,-0.5617,-0.8029
1772930850091.3657,0.0207,-0.5652,-0.8043
1772930850091.3657,0.022,-0.5676,-0.8027
1772930850091.3657,0.0223,-0.5672,-0.8004
1772930850091.3657,0.0252,-0.5622,-0.8001
1772930850091.3657,0.0254,-0.5653,-0.8014
1772930850107.3518,0.0262,-0.5641,-0.802
1772930850107.3518,0.0264,-0.5639,-0.7978
1772930850107.3518,0.0258,-0.5621,-0.8008
1772930850107.3518,0.0288,-0.5608,-0.7975
1772930850107.3518,0.0289,-0.5622,-0.7967
1772930850107.3518,0.0294,-0.5627,-0.7981
1772930850107.3518,0.0272,-0.5641,-0.7948
1772930850107.3518,0.0301,-0.5618,-0.7961
1772930850122.8594,0.0275,-0.5632,-0.7926
1772930850122.8594,0.0287,-0.5639,-0.795
1772930850122.8594,0.0277,-0.5641,-0.7948
1772930850122.8594,0.0262,-0.5635,-0.7964
1772930850122.8594,0.0251,-0.5661,-0.7946
1772930850122.8594,0.0269,-0.5649,-0.7942
1772930850122.8594,0.027,-0.5658,-0.7976
1772930850122.8594,0.0219,-0.5652,-0.7937
1772930850138.5503,0.0231,-0.5643,-0.7938
1772930850138.5503,0.0235,-0.5636,-0.7971
1772930850138.5503,0.0212,-0.5624,-0.7972
1772930850138.5503,0.0185,-0.5641,-0.797
1772930850138.5503,0.0179,-0.5669,-0.7978
1772930850138.5503,0.0181,-0.5655,-0.8006
1772930850153.5818,0.0206,-0.5644,-0.8027
1772930850153.5818,0.0182,-0.5666,-0.8015
1772930850153.5818,0.0188,-0.5654,-0.8059
1772930850153.5818,0.0208,-0.5647,-0.8023
1772930850153.5818,0.019,-0.5663,-0.8039
1772930850153.5818,0.0188,-0.5663,-0.8021
1772930850153.5818,0.0216,-0.5672,-0.8045
1772930850153.5818,0.0209,-0.5656,-0.806
1772930850169.6836,0.021,-0.5663,-0.8048
1772930850169.6836,0.0234,-0.5641,-0.8051
1772930850169.6836,0.024,-0.5655,-0.8063
1772930850169.6836,0.0245,-0.5643,-0.8053
1772930850169.6836,0.0251,-0.5633,-0.8052
1772930850169.6836,0.0259,-0.5663,-0.8008
1772930850169.6836,0.0276,-0.5668,-0.8051
1772930850169.6836,0.0281,-0.5678,-0.8028
1772930850184.9436,0.029,-0.5671,-0.8027
1772930850184.9436,0.0265,-0.5643,-0.8042
1772930850184.9436,0.0271,-0.5664,-0.8031
1772930850184.9436,0.0287,-0.5636,-0.8048
1772930850184.9436,0.0264,-0.5681,-0.8049
1772930850184.9436,0.0282,-0.5669,-0.8028
1772930850184.9436,0.0268,-0.5687,-0.8001
1772930850184.9436,0.0265,-0.568,-0.8026
1772930850201.032,0.0236,-0.5689,-0.8026
1772930850201.032,0.0253,-0.568,-0.8014
1772930850201.032,0.0244,-0.5694,-0.8006
1772930850201.032,0.0235,-0.5691,-0.7984
1772930850201.032,0.0222,-0.5702,-0.8021
1772930850201.032,0.0209,-0.57,-0.8022
1772930850201.032,0.0226,-0.5686,-0.8003
1772930850201.032,0.0186,-0.5679,-0.8003
1772930850216.4658,0.0188,-0.5683,-0.7995
1772930850216.4658,0.0203,-0.5655,-0.8011
1772930850216.4658,0.0201,-0.5683,-0.8017
1772930850216.4658,0.0174,-0.5684,-0.8007
1772930850216.4658,0.0195,-0.5654,-0.7998
1772930850232.0527,0.0209,-0.5649,-0.8001
1772930850232.0527,0.0201,-0.5618,-0.7984
1772930850232.0527,0.022,-0.5609,-0.797
1772930850232.0527,0.0206,-0.5605,-0.7986
1772930850232.0527,0.0231,-0.5619,-0.7981
1772930850232.0527,0.024,-0.5613,-0.7975
1772930850232.0527,0.0228,-0.5625,-0.7981
1772930850232.0527,0.0265,-0.5612,-0.7965
1772930850248.1355,0.0259,-0.5599,-0.7934
1772930850248.1355,0.0225,-0.5609,-0.7982
1772930850248.1355,0.0248,-0.5617,-0.7962
1772930850248.1355,0.0248,-0.5609,-0.7951
1772930850248.1355,0.0234,-0.5605,-0.7957
1772930850248.1355,0.0243,-0.5605,-0.7943
1772930850248.1355,0.0252,-0.5605,-0.8006
1772930850248.1355,0.0246,-0.5478,-0.7974
1772930850263.6995,0.0258,-0.5614,-0.7997
1772930850263.6995,0.0239,-0.5581,-0.7994
1772930850263.6995,0.0256,-0.5609,-0.7992
1772930850263.6995,0.0261,-0.5614,-0.7975
1772930850263.6995,0.0271,-0.5599,-0.7956
1772930850263.6995,0.0264,-0.5596,-0.7968
1772930850263.6995,0.0262,-0.5599,-0.798
1772930850263.6995,0.0251,-0.5612,-0.7959
1772930850279.283,0.0244,-0.5641,-0.8008
1772930850279.283,0.0253,-0.5634,-0.8001
1772930850279.283,0.0237,-0.565,-0.8017
1772930850279.283,0.0241,-0.5619,-0.7994
1772930850279.283,0.0232,-0.5627,-0.7981
1772930850279.283,0.0251,-0.5615,-0.8006
1772930850279.283,0.0236,-0.563,-0.8026
1772930850279.283,0.0231,-0.5617,-0.8018
1772930850295.0012,0.0218,-0.563,-0.8041
1772930850295.0012,0.0253,-0.5635,-0.8046
1772930850295.0012,0.0245,-0.5628,-0.8025
1772930850295.0012,0.0235,-0.5622,-0.804
1772930850295.0012,0.0259,-0.5617,-0.803
1772930850311.052,0.0251,-0.5636,-0.804
1772930850311.052,0.0267,-0.5635,-0.8051
1772930850311.052,0.0264,-0.5623,-0.8029
1772930850311.052,0.0265,-0.5624,-0.8068
1772930850311.052,0.0269,-0.5624,-0.8036
1772930850311.052,0.0234,-0.5621,-0.8023
1772930850311.052,0.0251,-0.5648,-0.8052
1772930850311.052,0.0263,-0.5653,-0.8053
1772930850327.1067,0.0234,-0.5654,-0.804
1772930850327.1067,0.0208,-0.5692,-0.8025
1772930850327.1067,0.0256,-0.5677,-0.8028
1772930850327.1067,0.0255,-0.5675,-0.8047
1772930850327.1067,0.0279,-0.5697,-0.8034
1772930850327.1067,0.0248,-0.5683,-0.8017
1772930850327.1067,0.0242,-0.5677,-0.802
1772930850327.1067,0.0268,-0.5679,-0.7998
1772930850343.2244,0.0259,-0.5655,-0.8007
1772930850343.2244,0.0264,-0.5672,-0.8001
1772930850343.2244,0.0265,-0.5653,-0.7974
1772930850343.2244,0.0228,-0.5657,-0.7963
1772930850343.2244,0.0244,-0.5661,-0.7971
1772930850343.2244,0.0253,-0.5685,-0.7956
1772930850343.2244,0.0251,-0.5671,-0.7975
1772930850343.2244,0.0243,-0.5663,-0.782
1772930850358.785,0.0247,-0.5678,-0.7955
1772930850358.785,0.025,-0.5698,-0.7992
1772930850358.785,0.0223,-0.5674,-0.7967
1772930850358.785,0.0249,-0.5702,-0.7973
1772930850358.785,0.0229,-0.5706,-0.7935
1772930850358.785,0.0239,-0.5688,-0.7945
1772930850358.785,0.0247,-0.5669,-0.7948
1772930850358.785,0.0201,-0.5655,-0.796
1772930850374.1455,0.0207,-0.5705,-0.7936
1772930850374.1455,0.0234,-0.5682,-0.7929
1772930850374.1455,0.0209,-0.5672,-0.795
1772930850374.1455,0.0181,-0.5658,-0.7937
1772930850374.1455,0.022,-0.5663,-0.7968
1772930850374.1455,0.0238,-0.5671,-0.7962
1772930850374.1455,0.0235,-0.5662,-0.7953
1772930850374.1455,0.0218,-0.5665,-0.7939
1772930850389.6782,0.0221,-0.5669,-0.7939
1772930850389.6782,0.0246,-0.5653,-0.7922
1772930850389.6782,0.0248,-0.5651,-0.7953
1772930850389.6782,0.025,-0.566,-0.7929
1772930850389.6782,0.0222,-0.5636,-0.7942
1772930850389.6782,0.0261,-0.5619,-0.7962
1772930850389.6782,0.0259,-0.5628,-0.7967
1772930850389.6782,0.026,-0.5637,-0.7928
1772930850404.5583,0.0274,-0.5654,-0.7963
1772930850404.5583,0.0276,-0.5647,-0.7971
1772930850404.5583,0.0251,-0.5651,-0.7996
1772930850404.5583,0.0262,-0.5672,-0.7998
1772930850404.5583,0.0268,-0.5654,-0.8006
1772930850404.5583,0.0242,-0.566,-0.8038
1772930850420.121,0.0246,-0.5622,-0.8028
1772930850420.121,0.0271,-0.5636,-0.8072
1772930850420.121,0.0271,-0.5648,-0.807
1772930850420.121,0.0265,-0.564,-0.8068
1772930850420.121,0.0276,-0.5643,-0.8072
1772930850420.121,0.0298,-0.5663,-0.81
1772930850420.121,0.0293,-0.5645,-0.8087
1772930850420.121,0.03,-0.5646,-0.8091
1772930850435.676,0.0301,-0.5641,-0.81
1772930850435.676,0.03,-0.5668,-0.805
1772930850435.676,0.0284,-0.5697,-0.7957
1772930850435.676,0.0317,-0.57,-0.7945
1772930850435.676,0.0276,-0.5715,-0.7917
1772930850435.676,0.0286,-0.5734,-0.7885
1772930850435.676,0.029,-0.5718,-0.7894
1772930850435.676,0.0249,-0.5713,-0.7887
1772930850451.1208,0.022,-0.5705,-0.7904
1772930850451.1208,0.0183,-0.5705,-0.7914
1772930850451.1208,0.0174,-0.5697,-0.7888
1772930850451.1208,0.0187,-0.5707,-0.7918
1772930850451.1208,0.0178,-0.5704,-0.7967
1772930850451.1208,0.0165,-0.571,-0.8003
1772930850451.1208,0.014,-0.5694,-0.8031
1772930850451.1208,0.0152,-0.5708,-0.8045
1772930850466.7354,0.0134,-0.5695,-0.8036
1772930850466.7354,0.0127,-0.5668,-0.8118
1772930850466.7354,0.0204,-0.5668,-0.814
1772930850466.7354,0.0228,-0.5711,-0.8131
1772930850466.7354,0.0284,-0.5705,-0.8087
1772930850482.778,0.0361,-0.5714,-0.8093
1772930850482.778,0.0377,-0.569,-0.8039
1772930850482.778,0.0433,-0.5621,-0.8017
1772930850482.778,0.0431,-0.5583,-0.8001
1772930850482.778,0.0431,-0.5515,-0.7964
1772930850482.778,0.0414,-0.5504,-0.7993
1772930850482.778,0.0372,-0.5456,-0.8007
1772930850482.778,0.0324,-0.549,-0.803
1772930850498.8726,0.036,-0.5488,-0.799
1772930850498.8726,0.0321,-0.5528,-0.7982
1772930850498.8726,0.0346,-0.5566,-0.7976
1772930850498.8726,0.032,-0.5605,-0.7965
1772930850498.8726,0.0334,-0.5629,-0.792
1772930850498.8726,0.0327,-0.5625,-0.7885
1772930850498.8726,0.0343,-0.5623,-0.7885
1772930850498.8726,0.0306,-0.5652,-0.786
1772930850514.4148,0.0303,-0.568,-0.7839
1772930850514.4148,0.026,-0.5687,-0.7871
1772930850514.4148,0.0213,-0.5728,-0.7858
1772930850514.4148,0.0206,-0.5721,-0.7853
1772930850514.4148,0.0187,-0.5743,-0.7857
1772930850514.4148,0.0164,-0.5732,-0.7831
1772930850514.4148,0.0166,-0.5731,-0.7857
1772930850514.4148,0.0135,-0.5755,-0.7834
1772930850530.0054,0.0147,-0.5749,-0.7819
1772930850530.0054,0.0137,-0.575,-0.7856
1772930850530.0054,0.0127,-0.5746,-0.7892
1772930850530.0054,0.0125,-0.5741,-0.7902
1772930850530.0054,0.0141,-0.5735,-0.7914
1772930850530.0054,0.0109,-0.5707,-0.8002
1772930850530.0054,0.0105,-0.5703,-0.8014
1772930850530.0054,0.0093,-0.5675,-0.8076
1772930850546.1272,0.0092,-0.5675,-0.8134
1772930850546.1272,0.0097,-0.5674,-0.8206
1772930850546.1272,0.0119,-0.5668,-0.8209
1772930850546.1272,0.014,-0.5692,-0.8256
1772930850546.1272,0.0155,-0.568,-0.8267
1772930850546.1272,0.0187,-0.5663,-0.8273
1772930850546.1272,0.0208,-0.5684,-0.8244
1772930850546.1272,0.0263,-0.5673,-0.8246
1772930850561.7092,0.0276,-0.5695,-0.8247
1772930850561.7092,0.0328,-0.5698,-0.8211
1772930850561.7092,0.0361,-0.5693,-0.8134
1772930850561.7092,0.037,-0.569,-0.8137
1772930850561.7092,0.0393,-0.5672,-0.8095
1772930850561.7092,0.0412,-0.5678,-0.8054
1772930850561.7092,0.0405,-0.5666,-0.8035
1772930850561.7092,0.0414,-0.5663,-0.8012
1772930850577.3262,0.0414,-0.5664,-0.8023
1772930850577.3262,0.0396,-0.5665,-0.7989
1772930850577.3262,0.0382,-0.5671,-0.7997
1772930850577.3262,0.0368,-0.5681,-0.801
1772930850577.3262,0.0346,-0.5708,-0.802
1772930850592.0686,0.0332,-0.5728,-0.8018
1772930850592.0686,0.0287,-0.5733,-0.8042
1772930850592.0686,0.0234,-0.5758,-0.8021
1772930850592.0686,0.0245,-0.5741,-0.8011
1772930850592.0686,0.0228,-0.5782,-0.8019
1772930850592.0686,0.0224,-0.5773,-0.8001
1772930850592.0686,0.0211,-0.5765,-0.8
1772930850592.0686,0.0214,-0.5788,-0.7968
1772930850607.1294,0.019,-0.5814,-0.7956
1772930850607.1294,0.0192,-0.5841,-0.792
1772930850607.1294,0.021,-0.5833,-0.7913
1772930850607.1294,0.0225,-0.5815,-0.7896
1772930850607.1294,0.0235,-0.5789,-0.7881
1772930850607.1294,0.0248,-0.5789,-0.7863
1772930850607.1294,0.0242,-0.5768,-0.7871
1772930850607.1294,0.0209,-0.5729,-0.786
1772930850622.748,0.0201,-0.5732,-0.787
1772930850622.748,0.021,-0.5694,-0.7885
1772930850622.748,0.0185,-0.5686,-0.7876
1772930850622.748,0.0209,-0.5672,-0.7879
1772930850622.748,0.0196,-0.566,-0.7873
1772930850622.748,0.0203,-0.5635,-0.7902
1772930850638.2905,0.021,-0.5653,-0.7893
1772930850638.2905,0.0222,-0.5622,-0.7896
1772930850638.2905,0.0227,-0.5632,-0.7915
1772930850638.2905,0.022,-0.5629,-0.7903
1772930850638.2905,0.022,-0.5608,-0.7913
1772930850638.2905,0.0203,-0.5643,-0.7928
1772930850638.2905,0.0198,-0.5624,-0.7903
1772930850638.2905,0.0215,-0.5593,-0.789
1772930850654.3882,0.0213,-0.5621,-0.7893
1772930850654.3882,0.0212,-0.5612,-0.7891
1772930850654.3882,0.0221,-0.5606,-0.7916
1772930850654.3882,0.0234,-0.5616,-0.792
1772930850654.3882,0.0241,-0.5614,-0.7896
1772930850654.3882,0.0237,-0.5605,-0.7879
1772930850654.3882,0.026,-0.5624,-0.7889
1772930850654.3882,0.0232,-0.5614,-0.7904
1772930850669.9448,0.0257,-0.563,-0.7884
1772930850669.9448,0.0259,-0.5625,-0.7875
1772930850669.9448,0.0269,-0.5635,-0.7891
1772930850669.9448,0.0286,-0.5772,-0.7874
1772930850669.9448,0.0257,-0.564,-0.7888
1772930850669.9448,0.0282,-0.5639,-0.7876
1772930850669.9448,0.0267,-0.5643,-0.7871
1772930850669.9448,0.0275,-0.5644,-0.7882
1772930850685.4712,0.0263,-0.5637,-0.7867
1772930850685.4712,0.0277,-0.5646,-0.7869
1772930850685.4712,0.0268,-0.5631,-0.7912
1772930850685.4712,0.0287,-0.5645,-0.7903
1772930850685.4712,0.0283,-0.5664,-0.788
1772930850685.4712,0.0303,-0.5653,-0.788
1772930850685.4712,0.0298,-0.5671,-0.792
1772930850685.4712,0.0267,-0.5696,-0.7914
1772930850701.0715,0.0296,-0.5694,-0.7925
1772930850701.0715,0.0296,-0.5699,-0.791
1772930850701.0715,0.0273,-0.5726,-0.7904
1772930850701.0715,0.0296,-0.5722,-0.7939
1772930850701.0715,0.0279,-0.5701,-0.793
1772930850701.0715,0.0252,-0.5705,-0.795
1772930850701.0715,0.024,-0.5726,-0.7959
1772930850701.0715,0.0257,-0.5712,-0.7973
1772930850716.676,0.0209,-0.5739,-0.7982
1772930850716.676,0.0206,-0.5738,-0.8034
1772930850716.676,0.0213,-0.5754,-0.8029
1772930850716.676,0.0206,-0.5761,-0.8024
1772930850716.676,0.0208,-0.5755,-0.8034
1772930850731.8525,0.0229,-0.5771,-0.8056
1772930850731.8525,0.0245,-0.5747,-0.8047
1772930850731.8525,0.0229,-0.5736,-0.8042
1772930850731.8525,0.0251,-0.575,-0.8045
1772930850731.8525,0.0235,-0.5749,-0.8086
1772930850731.8525,0.028,-0.5736,-0.804
1772930850731.8525,0.0259,-0.574,-0.8053
1772930850731.8525,0.0282,-0.5746,-0.805
1772930850747.8894,0.0267,-0.5769,-0.8028
1772930850747.8894,0.0279,-0.5771,-0.7979
1772930850747.8894,0.0255,-0.5788,-0.7979
1772930850747.8894,0.0261,-0.5783,-0.795
1772930850747.8894,0.0274,-0.5813,-0.7957
1772930850747.8894,0.03,-0.5783,-0.794
1772930850747.8894,0.0297,-0.579,-0.7901
1772930850747.8894,0.0267,-0.5774,-0.7909
1772930850763.4602,0.0261,-0.5766,-0.7884
1772930850763.4602,0.0266,-0.578,-0.7901
1772930850763.4602,0.0247,-0.5764,-0.786
1772930850763.4602,0.0235,-0.58,-0.7896
1772930850763.4602,0.0239,-0.5788,-0.7886
1772930850763.4602,0.0229,-0.5799,-0.7885
1772930850763.4602,0.0226,-0.5789,-0.7896
1772930850763.4602,0.0201,-0.5792,-0.7911
1772930850778.5908,0.0212,-0.5795,-0.7913
1772930850778.5908,0.0218,-0.5793,-0.7923
1772930850778.5908,0.0223,-0.5795,-0.7937
1772930850778.5908,0.0235,-0.5739,-0.7946
1772930850778.5908,0.0237,-0.5739,-0.7986
1772930850778.5908,0.0257,-0.5744,-0.7985
1772930850778.5908,0.0259,-0.5713,-0.8008
1772930850778.5908,0.0246,-0.5739,-0.8021
1772930850793.7058,0.0258,-0.5715,-0.8002
1772930850793.7058,0.0306,-0.5714,-0.7996
1772930850793.7058,0.0276,-0.5727,-0.8021
1772930850793.7058,0.0294,-0.5717,-0.7992
1772930850793.7058,0.0281,-0.5691,-0.799
1772930850809.0864,0.0306,-0.5671,-0.8003
1772930850809.0864,0.0292,-0.5657,-0.7975
1772930850809.0864,0.0329,-0.566,-0.7991
1772930850809.0864,0.0326,-0.5674,-0.7964
1772930850809.0864,0.0314,-0.5656,-0.7957
1772930850809.0864,0.0325,-0.5683,-0.7954
1772930850809.0864,0.0311,-0.5672,-0.7958
1772930850809.0864,0.0342,-0.5653,-0.7952
1772930850824.36,0.0327,-0.5668,-0.7963
1772930850824.36,0.0314,-0.5655,-0.7972
1772930850824.36,0.0309,-0.566,-0.7998
1772930850824.36,0.0303,-0.568,-0.7978
1772930850824.36,0.0304,-0.5693,-0.7985
1772930850824.36,0.0274,-0.5654,-0.7965
1772930850824.36,0.0255,-0.5675,-0.7973
1772930850824.36,0.0284,-0.5656,-0.8017
1772930850839.747,0.0253,-0.5677,-0.799
1772930850839.747,0.0247,-0.5686,-0.7989
1772930850839.747,0.0261,-0.57,-0.797
1772930850839.747,0.0298,-0.5668,-0.7979
1772930850839.747,0.0263,-0.5661,-0.8002
1772930850839.747,0.0282,-0.5672,-0.7967
1772930850839.747,0.0297,-0.5683,-0.7974
1772930850839.747,0.0292,-0.5664,-0.7979
1772930850855.2139,0.0306,-0.568,-0.7965
1772930850855.2139,0.0262,-0.5675,-0.7987
1772930850855.2139,0.0259,-0.5689,-0.7967
1772930850855.2139,0.0274,-0.5705,-0.7959
1772930850855.2139,0.0236,-0.5722,-0.7929
1772930850855.2139,0.0271,-0.5732,-0.7926
1772930850871.595,0.0267,-0.5693,-0.7929
1772930850871.595,0.0293,-0.5707,-0.7942
1772930850871.595,0.0282,-0.5708,-0.7943
1772930850871.595,0.0267,-0.5736,-0.7923
1772930850871.595,0.0292,-0.5709,-0.7946
1772930850871.595,0.0284,-0.5749,-0.7949
1772930850871.595,0.0267,-0.5739,-0.7936
1772930850871.595,0.0275,-0.5732,-0.7948
1772930850887.6626,0.027,-0.5714,-0.7943
1772930850887.6626,0.0278,-0.5723,-0.7926
1772930850887.6626,0.0278,-0.573,-0.7964
1772930850887.6626,0.0287,-0.5757,-0.7941
1772930850887.6626,0.0286,-0.5745,-0.7949
1772930850887.6626,0.0309,-0.5732,-0.7951
1772930850887.6626,0.0317,-0.5756,-0.7954
1772930850887.6626,0.033,-0.575,-0.7945
1772930850903.786,0.0295,-0.5741,-0.7925
1772930850903.786,0.03,-0.575,-0.7939
1772930850903.786,0.0295,-0.5735,-0.796
1772930850903.786,0.0306,-0.5721,-0.7951
1772930850903.786,0.0281,-0.5733,-0.7923
1772930850903.786,0.03,-0.5734,-0.7948
1772930850903.786,0.0293,-0.5714,-0.7946
1772930850903.786,0.0268,-0.5726,-0.7953
1772930850919.8318,0.0284,-0.5712,-0.7939
1772930850919.8318,0.0288,-0.5721,-0.7936
1772930850919.8318,0.0299,-0.5729,-0.7953
1772930850919.8318,0.0281,-0.5725,-0.7953
1772930850919.8318,0.0281,-0.5723,-0.7925
1772930850919.8318,0.0298,-0.5729,-0.7896
1772930850919.8318,0.0306,-0.5738,-0.7908
1772930850919.8318,0.0287,-0.575,-0.7925
1772930850935.3618,0.0303,-0.5721,-0.7898
1772930850935.3618,0.0299,-0.5724,-0.7918
1772930850935.3618,0.0298,-0.5745,-0.7893
1772930850935.3618,0.0284,-0.5729,-0.7895
1772930850935.3618,0.0291,-0.5706,-0.7903
1772930850935.3618,0.0249,-0.5723,-0.7879
1772930850935.3618,0.0286,-0.5731,-0.7898
1772930850935.3618,0.0287,-0.5711,-0.7899
1772930850950.9768,0.0267,-0.5718,-0.7907
1772930850950.9768,0.0284,-0.5727,-0.7923
1772930850950.9768,0.0282,-0.5735,-0.7933
1772930850950.9768,0.0316,-0.5714,-0.7926
1772930850950.9768,0.0289,-0.5727,-0.7921
1772930850950.9768,0.0307,-0.5718,-0.7934
1772930850950.9768,0.0295,-0.5716,-0.7925
1772930850950.9768,0.029,-0.5723,-0.795
1772930850966.1475,0.0311,-0.5733,-0.7937
1772930850966.1475,0.0277,-0.5738,-0.7959
1772930850966.1475,0.0294,-0.5725,-0.7984
1772930850966.1475,0.0281,-0.5713,-0.7973
1772930850966.1475,0.0286,-0.5749,-0.7977
1772930850981.986,0.0286,-0.5746,-0.797
1772930850981.986,0.0268,-0.5747,-0.7959
1772930850981.986,0.0276,-0.5752,-0.7962
1772930850981.986,0.0295,-0.5766,-0.7973
1772930850981.986,0.0289,-0.5739,-0.7976
1772930850981.986,0.0287,-0.5773,-0.7981
1772930850981.986,0.0281,-0.5775,-0.7975
1772930850981.986,0.0298,-0.5769,-0.7975
1772930850997.977,0.0157,-0.579,-0.7964
1772930850997.977,0.0289,-0.5799,-0.7978
1772930850997.977,0.0302,-0.5787,-0.7931
1772930850997.977,0.0283,-0.5784,-0.7954
1772930850997.977,0.0308,-0.579,-0.7973
1772930850997.977,0.0298,-0.578,-0.7982
1772930850997.977,0.0274,-0.5771,-0.7939
1772930850997.977,0.0272,-0.5807,-0.7953
1772930851013.076,0.0278,-0.5802,-0.7943
1772930851013.076,0.0279,-0.5792,-0.7971
1772930851013.076,0.0267,-0.5793,-0.7949
1772930851013.076,0.0264,-0.579,-0.7959
1772930851013.076,0.0285,-0.5791,-0.795
1772930851013.076,0.0272,-0.579,-0.7926
1772930851013.076,0.0254,-0.5768,-0.7903
1772930851013.076,0.0266,-0.5766,-0.7928
1772930851029.1943,0.0263,-0.5754,-0.7923
1772930851029.1943,0.0266,-0.5797,-0.7912
1772930851029.1943,0.0292,-0.5765,-0.7923
1772930851029.1943,0.0281,-0.5777,-0.7907
1772930851029.1943,0.0261,-0.5775,-0.7904
1772930851029.1943,0.0281,-0.5777,-0.7878
1772930851029.1943,0.0279,-0.5786,-0.7847
1772930851029.1943,0.0291,-0.5763,-0.7875
1772930851045.318,0.0312,-0.5775,-0.7899
1772930851045.318,0.0311,-0.5761,-0.788
1772930851045.318,0.0329,-0.5761,-0.7895
1772930851045.318,0.0308,-0.5764,-0.7878
1772930851045.318,0.0307,-0.5755,-0.7906
1772930851045.318,0.0294,-0.5749,-0.7865
1772930851045.318,0.0324,-0.5757,-0.7915
1772930851045.318,0.0335,-0.5748,-0.7886
1772930851060.963,0.0315,-0.5728,-0.7889
1772930851060.963,0.0305,-0.574,-0.7874
1772930851060.963,0.0304,-0.575,-0.7896
1772930851060.963,0.03,-0.5752,-0.7887
1772930851060.963,0.0314,-0.5734,-0.7889
1772930851076.7195,0.0307,-0.5735,-0.7903
1772930851076.7195,0.0315,-0.5722,-0.791
1772930851076.7195,0.0331,-0.57,-0.7908
1772930851076.7195,0.0325,-0.5744,-0.7903
1772930851076.7195,0.0332,-0.5714,-0.7938
1772930851076.7195,0.0304,-0.5722,-0.7898
1772930851076.7195,0.0307,-0.5723,-0.7902
1772930851076.7195,0.0321,-0.5735,-0.7923
1772930851092.434,0.0301,-0.5738,-0.7896
1772930851092.434,0.0318,-0.5733,-0.7915
1772930851092.434,0.0294,-0.5737,-0.791
1772930851092.434,0.0291,-0.5735,-0.7948
1772930851092.434,0.0275,-0.5749,-0.7937
1772930851092.434,0.0282,-0.5756,-0.7945
1772930851092.434,0.0289,-0.5758,-0.7935
1772930851092.434,0.0275,-0.5739,-0.7912
1772930851108.1375,0.0272,-0.5771,-0.7936
1772930851108.1375,0.0266,-0.5763,-0.7915
1772930851108.1375,0.0282,-0.5758,-0.7914
1772930851108.1375,0.0282,-0.5752,-0.7937
1772930851108.1375,0.0262,-0.5754,-0.7887
1772930851108.1375,0.0263,-0.575,-0.7898
1772930851108.1375,0.0281,-0.5763,-0.7896
1772930851108.1375,0.0308,-0.5733,-0.7899
1772930851123.9219,0.0298,-0.575,-0.7903
1772930851123.9219,0.0323,-0.5752,-0.79
1772930851123.9219,0.0295,-0.5747,-0.7878
1772930851123.9219,0.0293,-0.5774,-0.7893
1772930851123.9219,0.029,-0.5755,-0.7904
1772930851123.9219,0.0334,-0.5764,-0.7876
1772930851123.9219,0.0292,-0.5784,-0.7894
1772930851123.9219,0.0295,-0.5799,-0.7897
1772930851139.6533,0.0314,-0.5782,-0.7914
1772930851139.6533,0.0292,-0.5797,-0.792
1772930851139.6533,0.0306,-0.5809,-0.7912
1772930851139.6533,0.0285,-0.581,-0.7929
1772930851139.6533,0.0311,-0.5809,-0.7938
1772930851139.6533,0.0293,-0.5793,-0.7933
1772930851139.6533,0.0282,-0.5814,-0.7928
1772930851139.6533,0.0307,-0.577,-0.793
1772930851154.701,0.0284,-0.5792,-0.7926
1772930851154.701,0.0307,-0.5796,-0.7936
1772930851154.701,0.0319,-0.5774,-0.7921
1772930851154.701,0.0287,-0.5783,-0.7943
1772930851154.701,0.0295,-0.5791,-0.792
1772930851154.701,0.0321,-0.5771,-0.7939
1772930851170.6997,0.0314,-0.5793,-0.7935
1772930851170.6997,0.0301,-0.5772,-0.7944
1772930851170.6997,0.0309,-0.5768,-0.7928
1772930851170.6997,0.0301,-0.5778,-0.7939
1772930851170.6997,0.0315,-0.5791,-0.7929
1772930851170.6997,0.0302,-0.5768,-0.792
1772930851170.6997,0.0326,-0.5763,-0.7922
1772930851170.6997,0.0328,-0.5773,-0.7941
1772930851185.9463,0.0307,-0.5758,-0.7912
1772930851185.9463,0.0305,-0.5752,-0.7909
1772930851185.9463,0.0301,-0.5779,-0.7923
1772930851185.9463,0.03,-0.5768,-0.7938
1772930851185.9463,0.0308,-0.5772,-0.7913
1772930851185.9463,0.0298,-0.5772,-0.7917
1772930851185.9463,0.0322,-0.5767,-0.7931
1772930851185.9463,0.0303,-0.5785,-0.7929
1772930851201.0894,0.0307,-0.575,-0.792
1772930851201.0894,0.0298,-0.579,-0.791
1772930851201.0894,0.0288,-0.5796,-0.7898
1772930851201.0894,0.0301,-0.578,-0.7895
1772930851201.0894,0.0309,-0.5775,-0.7898
1772930851201.0894,0.0354,-0.5796,-0.7915
1772930851201.0894,0.0305,-0.5799,-0.7923
1772930851201.0894,0.0339,-0.5792,-0.7908
1772930851216.7288,0.0312,-0.5801,-0.7932
1772930851216.7288,0.032,-0.5793,-0.7943
1772930851216.7288,0.0316,-0.5822,-0.791
1772930851216.7288,0.0328,-0.5807,-0.7899
1772930851216.7288,0.0326,-0.5822,-0.7879
1772930851231.7544,0.0332,-0.5809,-0.7884
1772930851231.7544,0.0321,-0.5793,-0.7911
1772930851231.7544,0.0329,-0.579,-0.7879
1772930851231.7544,0.0353,-0.5807,-0.792
1772930851231.7544,0.0338,-0.5805,-0.7912
1772930851231.7544,0.0347,-0.5774,-0.7867
1772930851231.7544,0.0339,-0.5758,-0.7885
1772930851231.7544,0.0341,-0.5788,-0.7863
1772930851247.7742,0.0318,-0.5762,-0.7884
1772930851247.7742,0.0311,-0.5789,-0.7898
1772930851247.7742,0.0171,-0.5792,-0.7911
1772930851247.7742,0.0335,-0.5791,-0.7914
1772930851247.7742,0.0339,-0.5823,-0.7907
1772930851247.7742,0.0332,-0.5798,-0.7858
1772930851247.7742,0.0318,-0.5783,-0.7887
1772930851247.7742,0.0361,-0.5813,-0.7899
1772930851263.312,0.0325,-0.5796,-0.7882
1772930851263.312,0.0342,-0.5789,-0.7889
1772930851263.312,0.0339,-0.5783,-0.791
1772930851263.312,0.0313,-0.5776,-0.7903
1772930851263.312,0.0309,-0.578,-0.7884
1772930851263.312,0.0333,-0.5771,-0.7902
1772930851263.312,0.031,-0.578,-0.7885
1772930851263.312,0.0302,-0.5776,-0.7875
1772930851279.3286,0.0342,-0.5778,-0.7881
1772930851279.3286,0.0324,-0.5768,-0.7909
1772930851279.3286,0.0304,-0.5766,-0.7889
1772930851279.3286,0.0322,-0.58,-0.7873
1772930851279.3286,0.031,-0.5807,-0.7873
1772930851279.3286,0.0306,-0.5808,-0.7861
1772930851279.3286,0.0314,-0.5773,-0.7869
1772930851279.3286,0.0328,-0.5801,-0.7895
1772930851294.0828,0.0334,-0.5795,-0.7859
1772930851294.0828,0.032,-0.5802,-0.7877
1772930851294.0828,0.0326,-0.5764,-0.7873
1772930851294.0828,0.0315,-0.5795,-0.7873
1772930851294.0828,0.0315,-0.5799,-0.7886
1772930851309.1194,0.0301,-0.5777,-0.788
1772930851309.1194,0.0318,-0.5787,-0.7892
1772930851309.1194,0.0304,-0.5785,-0.7887
1772930851309.1194,0.0301,-0.579,-0.7917
1772930851309.1194,0.0307,-0.579,-0.7928
1772930851309.1194,0.0314,-0.5798,-0.7928
1772930851309.1194,0.0339,-0.5806,-0.7927
1772930851309.1194,0.0329,-0.5792,-0.7939
1772930851324.176,0.0315,-0.5801,-0.7942
1772930851324.176,0.0344,-0.5796,-0.7942
1772930851324.176,0.0353,-0.5793,-0.7915
1772930851324.176,0.0343,-0.5821,-0.7907
1772930851324.176,0.0356,-0.5847,-0.7901
1772930851324.176,0.0354,-0.5881,-0.7832
1772930851324.176,0.037,-0.5896,-0.7796
1772930851324.176,0.0381,-0.5897,-0.7782
1772930851339.6956,0.0387,-0.5863,-0.7751
1772930851339.6956,0.0323,-0.5857,-0.7754
1772930851339.6956,0.0315,-0.5854,-0.7766
1772930851339.6956,0.0301,-0.5863,-0.7744
1772930851339.6956,0.0285,-0.5885,-0.7749
1772930851339.6956,0.027,-0.5901,-0.7747
1772930851339.6956,0.0279,-0.5845,-0.7766
1772930851339.6956,0.0235,-0.5832,-0.7847
1772930851355.2363,0.0232,-0.5791,-0.7907
1772930851355.2363,0.0235,-0.5794,-0.7939
1772930851355.2363,0.0223,-0.5803,-0.7932
1772930851355.2363,0.0223,-0.5788,-0.8003
1772930851355.2363,0.0234,-0.579,-0.8
1772930851355.2363,0.0279,-0.5816,-0.8054
1772930851371.3276,0.029,-0.578,-0.8067
1772930851371.3276,0.0301,-0.5781,-0.8064
1772930851371.3276,0.0359,-0.58,-0.8026
1772930851371.3276,0.0378,-0.5768,-0.8005
1772930851371.3276,0.0417,-0.5752,-0.797
1772930851371.3276,0.0454,-0.5718,-0.7954
1772930851371.3276,0.046,-0.5668,-0.7935
1772930851371.3276,0.0454,-0.5627,-0.7953
1772930851386.9429,0.043,-0.5602,-0.7931
1772930851386.9429,0.0423,-0.5632,-0.7917
1772930851386.9429,0.0428,-0.563,-0.7894
1772930851386.9429,0.0451,-0.5681,-0.7862
1772930851386.9429,0.044,-0.5721,-0.7865
1772930851386.9429,0.0436,-0.5758,-0.7824
1772930851386.9429,0.0451,-0.5741,-0.7806
1772930851386.9429,0.0462,-0.5824,-0.7759
1772930851403.5579,0.0444,-0.5819,-0.7768
1772930851403.5579,0.0437,-0.5833,-0.7771
1772930851403.5579,0.0415,-0.5862,-0.7719
1772930851403.5579,0.0387,-0.5884,-0.7721
1772930851403.5579,0.0354,-0.591,-0.7699
1772930851403.5579,0.0338,-0.5908,-0.7716
1772930851403.5579,0.0309,-0.5911,-0.7742
1772930851403.5579,0.0276,-0.5907,-0.7759
1772930851419.6416,0.0246,-0.5907,-0.7749
1772930851419.6416,0.0217,-0.5892,-0.7806
1772930851419.6416,0.0215,-0.5891,-0.782
1772930851419.6416,0.0203,-0.5869,-0.7848
1772930851419.6416,0.0189,-0.5871,-0.7868
1772930851419.6416,0.0186,-0.5855,-0.7938
1772930851419.6416,0.0177,-0.5848,-0.7983
1772930851419.6416,0.0188,-0.5837,-0.8039
1772930851434.663,0.0173,-0.5819,-0.8129
1772930851434.663,0.0156,-0.5804,-0.8158
1772930851434.663,0.0184,-0.5819,-0.8232
1772930851434.663,0.0209,-0.5788,-0.829
1772930851434.663,0.0218,-0.578,-0.8347
1772930851434.663,0.0208,-0.5797,-0.8364
1772930851434.663,0.0266,-0.584,-0.8312
1772930851434.663,0.0314,-0.5877,-0.8271
1772930851449.9487,0.0329,-0.5867,-0.8246
1772930851449.9487,0.0358,-0.5918,-0.8154
1772930851449.9487,0.0405,-0.5873,-0.8058
1772930851449.9487,0.0406,-0.5846,-0.8001
1772930851449.9487,0.0431,-0.5849,-0.7946
1772930851465.9956,0.0495,-0.5793,-0.791
1772930851465.9956,0.0479,-0.5781,-0.7898
1772930851465.9956,0.0491,-0.5771,-0.7808
1772930851465.9956,0.0501,-0.5771,-0.7849
1772930851465.9956,0.0471,-0.5757,-0.782
1772930851465.9956,0.0498,-0.5768,-0.7872
1772930851465.9956,0.0457,-0.576,-0.7913
1772930851465.9956,0.044,-0.5814,-0.7888
1772930851481.0408,0.0396,-0.5792,-0.7919
1772930851481.0408,0.0379,-0.583,-0.7939
1772930851481.0408,0.0364,-0.5854,-0.7929
1772930851481.0408,0.0315,-0.5868,-0.7939
1772930851481.0408,0.0312,-0.5905,-0.7891
1772930851481.0408,0.0316,-0.5943,-0.7833
1772930851481.0408,0.0327,-0.595,-0.7818
1772930851481.0408,0.0329,-0.5975,-0.7795
1772930851496.9824,0.0353,-0.5947,-0.7738
1772930851496.9824,0.0378,-0.596,-0.7715
1772930851496.9824,0.0398,-0.5935,-0.7675
1772930851496.9824,0.0381,-0.5888,-0.7646
1772930851496.9824,0.0396,-0.5905,-0.7662
1772930851496.9824,0.0378,-0.5854,-0.7653
1772930851496.9824,0.0381,-0.5807,-0.7688
1772930851496.9824,0.0354,-0.5796,-0.7698
1772930851512.564,0.0342,-0.5781,-0.7705
1772930851512.564,0.0306,-0.577,-0.7753
1772930851512.564,0.029,-0.5773,-0.7763
1772930851512.564,0.0282,-0.5734,-0.7785
1772930851512.564,0.0253,-0.5768,-0.7767
1772930851512.564,0.0252,-0.5769,-0.7786
1772930851512.564,0.0257,-0.5787,-0.7804
1772930851512.564,0.0277,-0.5802,-0.7815
1772930851528.401,0.0253,-0.58,-0.7817
1772930851528.401,0.0256,-0.5808,-0.7832
1772930851528.401,0.0265,-0.5782,-0.7832
1772930851528.401,0.0248,-0.5764,-0.7878
1772930851528.401,0.0258,-0.578,-0.7873
1772930851528.401,0.025,-0.5778,-0.7874
1772930851528.401,0.029,-0.5774,-0.7871
1772930851528.401,0.0273,-0.5794,-0.7854
1772930851543.0415,0.0284,-0.5783,-0.7843
1772930851543.0415,0.0298,-0.5781,-0.7856
1772930851543.0415,0.0289,-0.5794,-0.7844
1772930851543.0415,0.032,-0.577,-0.7862
1772930851543.0415,0.0331,-0.5784,-0.7865
1772930851559.0852,0.0315,-0.578,-0.7847
1772930851559.0852,0.0309,-0.5765,-0.7841
1772930851559.0852,0.0329,-0.5786,-0.7799
1772930851559.0852,0.0328,-0.5801,-0.7812
1772930851559.0852,0.035,-0.5775,-0.783
1772930851559.0852,0.035,-0.5775,-0.7824
1772930851559.0852,0.0353,-0.5789,-0.7771
1772930851559.0852,0.0346,-0.5776,-0.7781
1772930851574.1423,0.0359,-0.5785,-0.7802
1772930851574.1423,0.0365,-0.5788,-0.7771
1772930851574.1423,0.0373,-0.5806,-0.7757
1772930851574.1423,0.0365,-0.5786,-0.7779
1772930851574.1423,0.0401,-0.5799,-0.7774
1772930851574.1423,0.0394,-0.5817,-0.7759
1772930851574.1423,0.0401,-0.5804,-0.7757
1772930851574.1423,0.0378,-0.5816,-0.7778
1772930851589.6628,0.0395,-0.5828,-0.7767
1772930851589.6628,0.0376,-0.5819,-0.7779
1772930851589.6628,0.0382,-0.5812,-0.7787
1772930851589.6628,0.0366,-0.5827,-0.7779
1772930851589.6628,0.0364,-0.5851,-0.78
1772930851589.6628,0.0351,-0.5866,-0.7795
1772930851589.6628,0.0326,-0.5865,-0.7806
1772930851589.6628,0.0332,-0.5869,-0.784
1772930851605.1404,0.0332,-0.5859,-0.7859
1772930851605.1404,0.0326,-0.5842,-0.7823
1772930851605.1404,0.0328,-0.5866,-0.7869
1772930851605.1404,0.0315,-0.5864,-0.7876
1772930851605.1404,0.0336,-0.584,-0.7877
1772930851605.1404,0.0329,-0.5841,-0.7889
1772930851621.6848,0.0314,-0.5846,-0.7892
1772930851621.6848,0.0332,-0.5838,-0.7928
1772930851621.6848,0.0318,-0.5836,-0.7921
1772930851621.6848,0.0325,-0.5855,-0.7908
1772930851621.6848,0.0354,-0.5846,-0.7907
1772930851621.6848,0.0349,-0.5863,-0.7931
1772930851621.6848,0.0334,-0.586,-0.7946
1772930851621.6848,0.0356,-0.585,-0.7933
1772930851637.7444,0.0357,-0.588,-0.7914
1772930851637.7444,0.0359,-0.5889,-0.7911
1772930851637.7444,0.0361,-0.5884,-0.7876
1772930851637.7444,0.0344,-0.5862,-0.7898
1772930851637.7444,0.0347,-0.5868,-0.7917
1772930851637.7444,0.0325,-0.5902,-0.7871
1772930851637.7444,0.037,-0.5894,-0.7847
1772930851637.7444,0.0345,-0.5902,-0.7824
1772930851653.935,0.0372,-0.5963,-0.7823
1772930851653.935,0.0358,-0.5933,-0.7818
1772930851653.935,0.0374,-0.5953,-0.7773
1772930851653.935,0.0362,-0.5949,-0.7778
1772930851653.935,0.0339,-0.5969,-0.7744
1772930851653.935,0.035,-0.595,-0.7764
1772930851653.935,0.0335,-0.5946,-0.7748
1772930851653.935,0.0329,-0.5944,-0.7747
1772930851669.9307,0.031,-0.5944,-0.7776
1772930851669.9307,0.0282,-0.5958,-0.7763
1772930851669.9307,0.0289,-0.5934,-0.7784
1772930851669.9307,0.0323,-0.5943,-0.7809
1772930851669.9307,0.0301,-0.5924,-0.7826
1772930851669.9307,0.031,-0.5936,-0.7839
1772930851669.9307,0.0307,-0.5915,-0.7842
1772930851669.9307,0.0319,-0.5882,-0.788
1772930851685.0376,0.0318,-0.5889,-0.7871
1772930851685.0376,0.0325,-0.585,-0.7914
1772930851685.0376,0.0344,-0.5852,-0.7931
1772930851685.0376,0.033,-0.5828,-0.7928
1772930851685.0376,0.0352,-0.5835,-0.793
1772930851685.0376,0.0354,-0.5823,-0.7957
1772930851685.0376,0.036,-0.5825,-0.7964
1772930851685.0376,0.0343,-0.5836,-0.7959
1772930851700.1055,0.0345,-0.5813,-0.7914
1772930851700.1055,0.0374,-0.5807,-0.7904
1772930851700.1055,0.039,-0.5807,-0.7914
1772930851700.1055,0.0372,-0.5794,-0.7905
1772930851700.1055,0.0388,-0.5791,-0.7886
1772930851715.7024,0.0382,-0.5807,-0.7896
1772930851715.7024,0.0428,-0.5799,-0.788
1772930851715.7024,0.0415,-0.58,-0.7876
1772930851715.7024,0.0423,-0.5816,-0.7863
1772930851715.7024,0.0406,-0.5814,-0.7867
1772930851715.7024,0.0415,-0.5799,-0.7862
1772930851715.7024,0.041,-0.5796,-0.7858
1772930851715.7024,0.0401,-0.5791,-0.7886
1772930851731.8037,0.0395,-0.5816,-0.7885
1772930851731.8037,0.0409,-0.5802,-0.7876
1772930851731.8037,0.0399,-0.5805,-0.7879
1772930851731.8037,0.0375,-0.58,-0.7872
1772930851731.8037,0.0379,-0.5831,-0.7849
1772930851731.8037,0.0373,-0.5835,-0.7872
1772930851731.8037,0.0363,-0.5866,-0.7859
1772930851731.8037,0.0376,-0.5854,-0.7845
1772930851746.9788,0.035,-0.5855,-0.7868
1772930851746.9788,0.0337,-0.5877,-0.7865
1772930851746.9788,0.0348,-0.5877,-0.784
1772930851746.9788,0.0342,-0.5861,-0.7811
1772930851746.9788,0.0339,-0.583,-0.7848
1772930851746.9788,0.0323,-0.5834,-0.7853
1772930851746.9788,0.0314,-0.5823,-0.7803
1772930851746.9788,0.0276,-0.5802,-0.7836
1772930851763.1636,0.0221,-0.5855,-0.786
1772930851763.1636,0.0279,-0.5855,-0.7849
1772930851763.1636,0.0295,-0.5849,-0.7867
1772930851763.1636,0.0366,-0.5863,-0.7847
1772930851763.1636,0.0371,-0.5883,-0.7874
1772930851763.1636,0.0398,-0.5896,-0.7889
1772930851763.1636,0.0401,-0.5867,-0.7868
1772930851763.1636,0.0376,-0.5866,-0.7904
1772930851779.1758,0.0368,-0.5877,-0.7928
1772930851779.1758,0.0398,-0.5884,-0.7895
1772930851779.1758,0.0396,-0.5862,-0.7872
1772930851779.1758,0.0385,-0.5868,-0.7921
1772930851779.1758,0.0366,-0.5846,-0.7879
1772930851779.1758,0.0386,-0.5847,-0.7878
1772930851779.1758,0.0373,-0.5863,-0.7867
1772930851779.1758,0.037,-0.5849,-0.7867
1772930851794.432,0.0372,-0.5855,-0.7873
1772930851794.432,0.038,-0.5847,-0.7867
1772930851794.432,0.0377,-0.5872,-0.7889
1772930851794.432,0.0397,-0.5874,-0.7863
1772930851794.432,0.0357,-0.5857,-0.7895
1772930851809.7566,0.0363,-0.5869,-0.7896
1772930851809.7566,0.0367,-0.5843,-0.7853
1772930851809.7566,0.0339,-0.5833,-0.7886
1772930851809.7566,0.0355,-0.5855,-0.7881
1772930851809.7566,0.036,-0.5822,-0.7862
1772930851809.7566,0.0346,-0.5865,-0.7856
1772930851809.7566,0.0349,-0.5861,-0.7872
1772930851809.7566,0.0357,-0.5861,-0.784
1772930851824.4211,0.0368,-0.587,-0.7812
1772930851824.4211,0.0377,-0.5869,-0.7832
1772930851824.4211,0.0387,-0.5884,-0.7817
1772930851824.4211,0.0389,-0.5869,-0.7846
1772930851824.4211,0.0392,-0.5847,-0.7806
1772930851824.4211,0.0407,-0.5879,-0.7796
1772930851824.4211,0.042,-0.5852,-0.7821
1772930851824.4211,0.0392,-0.5881,-0.7804
1772930851839.7598,0.0403,-0.587,-0.782
1772930851839.7598,0.0411,-0.5888,-0.7834
1772930851839.7598,0.0408,-0.5882,-0.7802
1772930851839.7598,0.0396,-0.5902,-0.7802
1772930851839.7598,0.042,-0.5874,-0.7817
1772930851839.7598,0.0407,-0.5883,-0.7849
1772930851839.7598,0.0407,-0.5879,-0.7829
1772930851839.7598,0.0434,-0.5885,-0.7824
1772930851855.021,0.0426,-0.5865,-0.7812
1772930851855.021,0.0415,-0.5874,-0.782
1772930851855.021,0.0421,-0.5857,-0.7804
1772930851855.021,0.0422,-0.5863,-0.7845
1772930851855.021,0.0414,-0.5863,-0.7846
1772930851855.021,0.0403,-0.5859,-0.7852
1772930851871.3672,0.0387,-0.5881,-0.7856
1772930851871.3672,0.0399,-0.5856,-0.7849
1772930851871.3672,0.0381,-0.586,-0.7863
1772930851871.3672,0.0354,-0.5828,-0.7867
1772930851871.3672,0.0393,-0.5844,-0.7898
1772930851871.3672,0.0357,-0.5836,-0.7892
1772930851871.3672,0.0354,-0.5822,-0.7898
1772930851871.3672,0.0371,-0.5832,-0.7912
1772930851886.4343,0.0362,-0.5837,-0.7884
1772930851886.4343,0.0379,-0.5844,-0.7878
1772930851886.4343,0.035,-0.5847,-0.7886
1772930851886.4343,0.0352,-0.5843,-0.7876
1772930851886.4343,0.0348,-0.5826,-0.7873
1772930851886.4343,0.0347,-0.585,-0.7853
1772930851886.4343,0.0351,-0.5827,-0.7865
1772930851886.4343,0.0354,-0.5853,-0.7851
1772930851901.9907,0.0354,-0.5853,-0.7826
1772930851901.9907,0.0345,-0.5847,-0.7849
1772930851901.9907,0.0359,-0.5885,-0.7869
1772930851901.9907,0.0328,-0.5878,-0.7846
1772930851901.9907,0.0339,-0.5921,-0.7851
1772930851901.9907,0.0326,-0.5915,-0.7849
1772930851901.9907,0.0321,-0.5942,-0.783
1772930851901.9907,0.0332,-0.5924,-0.7851
1772930851917.145,0.0361,-0.6078,-0.784
1772930851917.145,0.0339,-0.593,-0.7839
1772930851917.145,0.0356,-0.5908,-0.7865
1772930851917.145,0.0365,-0.5924,-0.7823
1772930851917.145,0.0353,-0.5925,-0.7843
1772930851933.1965,0.0361,-0.5945,-0.7839
1772930851933.1965,0.0371,-0.5922,-0.7787
1772930851933.1965,0.0373,-0.5947,-0.7809
1772930851933.1965,0.0344,-0.5937,-0.7823
1772930851933.1965,0.0351,-0.5926,-0.7801
1772930851933.1965,0.0365,-0.5912,-0.7814
1772930851933.1965,0.0356,-0.5895,-0.7816
1772930851933.1965,0.0351,-0.5899,-0.7805
1772930851948.7239,0.0359,-0.5902,-0.7814
1772930851948.7239,0.0368,-0.5879,-0.7816
1772930851948.7239,0.0386,-0.5879,-0.7813
1772930851948.7239,0.0376,-0.5884,-0.7814
1772930851948.7239,0.0367,-0.5832,-0.7793
1772930851948.7239,0.0398,-0.5838,-0.7818
1772930851948.7239,0.0386,-0.5862,-0.7812
1772930851948.7239,0.0396,-0.5855,-0.7809
1772930851964.0042,0.0393,-0.5836,-0.7815
1772930851964.0042,0.038,-0.5869,-0.7821
1772930851964.0042,0.0375,-0.5857,-0.7815
1772930851964.0042,0.038,-0.5855,-0.7804
1772930851964.0042,0.0373,-0.5863,-0.7825
1772930851964.0042,0.0384,-0.5847,-0.781
1772930851964.0042,0.0362,-0.5857,-0.7827
1772930851964.0042,0.0389,-0.5846,-0.7821
1772930851979.2236,0.039,-0.5858,-0.7809
1772930851979.2236,0.0389,-0.5851,-0.7839
1772930851979.2236,0.038,-0.5856,-0.7812
1772930851979.2236,0.0393,-0.5849,-0.7804
1772930851979.2236,0.0365,-0.586,-0.7824
1772930851979.2236,0.0373,-0.5881,-0.7788
1772930851979.2236,0.037,-0.5852,-0.7802
1772930851979.2236,0.0373,-0.5855,-0.7806
1772930851995.318,0.0382,-0.5874,-0.7803
1772930851995.318,0.0374,-0.5883,-0.7821
1772930851995.318,0.0376,-0.5913,-0.7848
1772930851995.318,0.0368,-0.5882,-0.7825
1772930851995.318,0.0383,-0.5908,-0.7823
1772930851995.318,0.0377,-0.5888,-0.7826
1772930851995.318,0.0396,-0.5919,-0.7835
1772930851995.318,0.0387,-0.5876,-0.7845
1772930852011.2798,0.036,-0.588,-0.782
1772930852011.2798,0.0397,-0.5888,-0.783
1772930852011.2798,0.0384,-0.5875,-0.7813
1772930852011.2798,0.0354,-0.5867,-0.7835
1772930852011.2798,0.0368,-0.589,-0.7818
1772930852027.335,0.0342,-0.5879,-0.7811
1772930852027.335,0.0379,-0.5866,-0.7829
1772930852027.335,0.039,-0.5876,-0.7819
1772930852027.335,0.0368,-0.5865,-0.7834
1772930852027.335,0.0388,-0.587,-0.7819
1772930852027.335,0.0366,-0.5879,-0.7848
1772930852027.335,0.0381,-0.5844,-0.7836
1772930852027.335,0.0371,-0.5847,-0.7845
1772930852043.1711,0.0357,-0.5843,-0.783
1772930852043.1711,0.0352,-0.5848,-0.7849
1772930852043.1711,0.0384,-0.5827,-0.7845
1772930852043.1711,0.0373,-0.5866,-0.7827
1772930852043.1711,0.0361,-0.5867,-0.7828
1772930852043.1711,0.0387,-0.5884,-0.7824
1772930852043.1711,0.0364,-0.5887,-0.7826
1772930852043.1711,0.0371,-0.5878,-0.7792
1772930852058.1118,0.0388,-0.5885,-0.7836
1772930852058.1118,0.0359,-0.589,-0.7867
1772930852058.1118,0.0369,-0.588,-0.7812
1772930852058.1118,0.0356,-0.588,-0.7861
1772930852058.1118,0.0384,-0.588,-0.7826
1772930852058.1118,0.0387,-0.5902,-0.7844
1772930852058.1118,0.0369,-0.5882,-0.7844
1772930852058.1118,0.036,-0.5896,-0.7815
1772930852073.9353,0.0371,-0.5911,-0.7853
1772930852073.9353,0.0381,-0.5893,-0.7857
1772930852073.9353,0.0391,-0.5924,-0.7855
1772930852073.9353,0.0386,-0.5908,-0.7844
1772930852073.9353,0.0368,-0.59,-0.7856
1772930852073.9353,0.0364,-0.5916,-0.7833
1772930852073.9353,0.0355,-0.5905,-0.7859
1772930852073.9353,0.037,-0.5912,-0.7853
1772930852090.0242,0.0363,-0.594,-0.7881
1772930852090.0242,0.0345,-0.5921,-0.7867
1772930852090.0242,0.0357,-0.5907,-0.7844
1772930852090.0242,0.0356,-0.5912,-0.7851
